{
  "title": "MIDDでがん治療を変革！用量選択と規制科学の最前線",
  "content": "# MIDDでがん治療を変革！用量選択と規制科学の最前線\n\n![MIDDでがん治療を変革！用量選択と規制科学の最前線](https://images.unsplash.com/photo-1507679799987-c73779587ccf?w=1200&h=630&fit=crop&auto=format&q=80)\n\n*Photo from [Unsplash](https://unsplash.com/)*\n\n\n## この記事でわかること\n*   がん領域におけるMIDD（モデルに基づく医薬品開発）の重要性と、規制科学の役割が理解できます。\n*   FDA/PMDAへの用量選択データ提出に関する最新の規制動向と、CDISCデータ標準（SDTM、ADaM）での実装方法がわかります。\n*   日本の実務担当者が海外の規制トレンドにどう対応すべきか、具体的なSASコード例を交えて学習できます。\n*   MIDD関連のCDISCデータバリデーションでよくあるエラーとその対処法を習得できます。\n*   効率的な臨床開発と患者さんへの貢献に繋がる、MIDDの活用戦略を深掘りします。\n\n## 結論から言うと\nがん領域の**臨床開発**において、**MIDD**（モデルに基づく医薬品開発）は用量選択の最適化と効率的な規制当局対応に不可欠です。FDAは特に「Project Optimus」で、低用量から高用量まで多様な用量評価を推奨しており、**規制科学**に基づいたデータ提出が求められます。CDISC標準を用いた適切なデータ作成とバリデーションが、**FDA/PMDA**双方へのスムーズな申請成功の鍵となります。\n\n## MIDD（モデルに基づく医薬品開発）とは？\n\nMIDD（Model-Informed Drug Development）とは、薬物動態（PK）や薬力学（PD）、疾患のメカニズム、臨床転帰に関する数学的なモデルを構築し、それらを活用して医薬品の開発プロセス全体を情報に基づいて支援するアプローチです。特に**がん領域**では、標的の複雑さや患者さんの多様性から、個別化医療の推進や効率的な**用量選択**にMIDDが非常に重要な役割を果たしています。\n\nこのアプローチにより、私たちは限られた臨床データからより多くの情報を引き出し、臨床試験のデザイン最適化、効果と安全性の予測、そして最適な用量・用法の設定をより科学的根拠に基づいて行うことができます。結果として、時間とコストを削減しつつ、患者さんにとって最適な薬剤を迅速に提供することを目指します。\n\n## 実務での使い方・実装手順\n\nMIDDの成果は、しばしばPK/PDモデルのパラメータやシミュレーション結果として得られます。これらの情報は、CDISC標準に準拠したデータセットに適切にマッピングし、規制当局に提出する必要があります。特に、用量選択の根拠を示すデータは極めて重要です。\n\nここでは、PKデータとPDデータを統合し、ADaM（Analysis Data Model）解析データセットを作成する際の考え方と、簡易的なSASコード例を示します。\n\n### 1. SDTM（Standard Data Tabulation Model）でのデータ収集\n\nPKデータは通常、SDTMのPP（Pharmacokinetics Parameters）ドメインやPC（Pharmacokinetics Concentration）ドメインで収集されます。PDデータはRS（Response to Treatment）、TU（Tumor Measurements）などのドメインで収集されます。\n\n### 2. ADaMでの解析データセット作成\n\nMIDDの解析に用いるADaMデータセットでは、PK/PDの関連性や曝露反応関係を示すための変数を導出します。\n\n**例：曝露反応関係を示すADPP（Analysis Data Pharmacokinetics/Pharmacodynamics）データセットの作成**\n\nここでは、PKパラメータ（AUC）と腫瘍縮小率（TRPER）を関連付けるADPPデータセットの作成を想定します。モデル解析結果で導出されたIndividual Post-Hoc PK Parameter（例：AUC）と、SDTMのRSドメインから得られる腫瘍縮小率を結合します。\n\n```sas\n/* ADPPデータセット作成のSASコード例 */\n\n/* 1. SDTM.PPドメインからAUCデータを抽出 */\ndata work.pp_data;\n    set sdtm.pp;\n    where PPTESTCD = 'AUCALL'; /* 全時間域でのAUCを例に */\n    keep USUBJID PPORRES;\n    rename PPORRES = AUC;\nrun;\n\n/* 2. SDTM.RSドメインから腫瘍縮小率データを抽出 */\ndata work.rs_data;\n    set sdtm.rs;\n    where RSTESTCD = 'TRPER'; /* 腫瘍縮小率を例に */\n    /* ベストレスポンス（最大腫瘍縮小率）を考慮することも多い */\n    /* ここでは簡略化のため、特定の時点のデータを使用 */\n    keep USUBJID RSSTRESC;\n    rename RSSTRESC = TRPER;\nrun;\n\n/* 3. PK (AUC) とPD (TRPER) データを結合しADPPデータセットを作成 */\ndata adam.adpp;\n    merge work.pp_data (in=a) work.rs_data (in=b);\n    by USUBJID;\n\n    if a and b then do;\n        /* 必要に応じて共変量なども追加 */\n        LENGTH PARAM $20 LABEL $40 AVALN 8 AVALC $20 AVALU $20;\n        PARAM = 'AUC vs TRPER';\n        LABEL = 'Area Under the Curve vs Tumor Reduction Percentage';\n        AVALN = AUC;\n        AVALC = TRPER;\n        /* AVALN2にTRPERを入れるなど、2変数を表現する方法はいくつかある */\n        /* ここでは簡略化のため、主要なPK/PD変数を例示 */\n        output;\n    end;\n\n    /* ADaM変数属性の設定 (ADaM IG (Implementation Guide) に準拠) */\n    label USUBJID = 'Unique Subject Identifier'\n          AUC     = 'Area Under the Curve'\n          TRPER   = 'Tumor Reduction Percentage'\n          PARAM   = 'Parameter Short Name'\n          LABEL   = 'Parameter Label'\n          AVALN   = 'Analysis Value (Numeric)'\n          AVALC   = 'Analysis Value (Character)';\n\n    format AUC TRPER 8.2;\nrun;\n\n/* Define-XMLの対応 */\n/* ADaM ADPPの各変数について、ADaM IGに準拠した属性、導出ロジック、コードリストなどをDefine-XMLに記述します。*/\n```\n\nこのADaM ADPPデータセットは、PK曝露とPD反応の間の関係を解析するための基盤となります。この解析結果が、最適な**用量選択**の根拠として規制当局に提出される**規制科学**的証拠の一部となるのです。\n\n## 海外の最新動向\n\n### FDAの「Project Optimus」とMIDD\n\n近年、米国FDA（食品医薬品局）は、がん領域の医薬品開発において、より詳細な**用量選択**と最適化を促す「Project Optimus」を立ち上げました。これは、これまでの抗がん剤開発が最大耐量（MTD）に基づき、最適用量の検討が不十分だったという反省に基づいています。\n\n**「Project Optimus」の主なポイント**：\n*   **用量探索の強化:** 第II相試験などで、複数の用量レベルを評価し、曝露反応関係に基づいて最適な用量を選択することの重要性を強調しています。\n*   **MIDDの活用:** モデルに基づく用量探索や用量最適化のアプローチを積極的に推奨しています。\n*   **臨床開発の効率化:** 適切な用量選択により、承認後の再評価や用量変更のリスクを減らし、患者さんにとって最適な治療を早期に提供することを目指します。\n\n**出典:** [FDA Oncology Center of Excellence (OCE) Project Optimus](https://www.fda.gov/about-fda/oncology-center-excellence/project-optimus)\n\nFDAは、2023年6月に最終ガイダンス「Model-Informed Drug Development (MIDD) Approaches — Questions and Answers」を公開し、MIDDの適用範囲、提出データ、統計解析、および規制上の懸念に関する具体的なQ&Aを提供しています。これにより、MIDDを効果的に活用するための道筋が示されています。\n\n**出典:** [FDA Guidance: Model-Informed Drug Development Approaches](https://www.fda.gov/regulatory-information/search-fda-guidance-documents/model-informed-drug-development-midd-approaches-questions-and-answers)\n\n### EMA（欧州医薬品庁）の動向\n\nEMAもMIDDの重要性を認識しており、特に小児や希少疾患、そしてがん領域での**臨床開発**におけるMIDDの活用を推奨しています。FDAと同様に、モデルを用いた臨床試験のデザインや用量選択は、承認審査プロセスにおいて高い評価を受けています。EMAは、科学的助言（Scientific Advice）プロセスを通じて、MIDDの計画に関する早期からの相談を奨励しています。\n\n**出典:** [European Medicines Agency (EMA) - Model-informed drug development](https://www.ema.europa.eu/en/human-regulatory/research-development/scientific-guidelines-and-regulatory-guidance/scientific-advice)\n\n### CDISC標準の更新情報\n\nCDISCは、MIDDのニーズに対応するため、継続的に標準の進化を図っています。特にPK/PDデータの収集と表現においては、PPドメイン（Pharmacokinetics Parameters）やPCドメイン（Pharmacokinetics Concentration）などのSDTMドメイン、およびADaM IG（Implementation Guide）での解析データセットのガイダンスが重要です。今後のCDISC標準では、さらに複雑なモデルベースのデータ（例：Individual Parameter Estimates）をどのようにSDTM/ADaMで表現するかについてのガイダンスが強化される可能性があります。\n\n## 日本での対応ポイント\n\n### PMDA（医薬品医療機器総合機構）の要件と動向\n\nPMDAもまた、医薬品開発における**規制科学**の重要性を認識しており、MIDDアプローチの活用を積極的に推奨しています。特に、国際共同治験や希少疾病用医薬品の開発において、限られたデータから最大の情報を引き出すためにMIDDが有用であるとされています。\n\nPMDAは、日本での医薬品承認申請における電子データ提出要件として、FDAと同様にCDISC標準（SDTM、ADaM、Define-XML）を求めています。PMDAの「電子データ提出に関する技術的ガイドライン」には、提出ファイルの構造（eCTD）や、CDISCデータセットに関する具体的な要件が記載されています。MIDDの解析結果は、ADaMデータセットとして提出することが求められ、その**用量選択**の科学的根拠を明確に示す必要があります。\n\n**出典:** [PMDA 電子データ提出に関する技術的ガイドライン](https://www.pmda.go.jp/review-services/drug-reviews/regulations/0029.html)\n\n| 項目                 | FDA (Project Optimus)                               | PMDA (日本の実務慣行)                                       |\n| :------------------- | :-------------------------------------------------- | :---------------------------------------------------------- |\n| **用量選択**の重視 | 第II相での複数用量評価、曝露反応関係の重視          | 複数用量評価の推奨、日本人における用量反応性の確認を重視    |\n| MIDDの活用           | 積極的な推奨、専用ガイダンスあり                    | 積極的な推奨、特に国際共同治験や希少疾患で活用             |\n| CDISCデータ提出      | SDTM/ADaM/Define-XMLが必須、技術的要件が詳細     | SDTM/ADaM/Define-XMLが必須、技術的ガイドラインに準拠       |\n| 規制科学の視点       | 患者中心の最適化、承認後の用量変更リスク低減        | 日本人患者への適用性、最適な治療の早期提供                  |\n| データ提出ガイド     | Study Data Technical Conformance Guide (SDTCG)      | 電子データ提出に関する技術的ガイドライン                    |\n\n### 国内の実務慣行とアドバイス\n\n日本の製薬企業・CROの実務担当者としては、以下のポイントに留意することが重要です。\n\n1.  **早期からのMIDD戦略立案:** 開発初期段階から、臨床開発計画にMIDDを組み込み、データ収集項目をCDISC標準と整合させるよう計画することが肝要です。\n2.  **データサイエンティストとの連携強化:** PK/PDモデリングの専門家とSASプログラマーが密接に連携し、MIDD解析に必要なデータを効率的に準備し、CDISC準拠の解析データセットを構築する体制を整えましょう。\n3.  **日本人データでの用量検討:** 国際共同治験の場合でも、日本人における用量反応性や安全性の特性をMIDDで評価し、最適な**用量選択**の根拠を強化することがPMDA申請において重要です。\n4.  **最新のCDISC標準とガイダンスの追随:** CDISCのIG（Implementation Guide）やTherapeutic Area User Guide (TAUG) の最新版を常に確認し、MIDD関連データのマッピング方法を適切に適用してください。\n\n## よくあるエラーと対処法\n\nMIDD関連データをCDISC標準で提出する際、バリデーションツール（例: Pinnacle 21 Community/Enterprise）で指摘されやすいエラーと、その対処法をいくつかご紹介します。\n\n### 1. PK/PDパラメータの単位（UNIT）不足・不整合\n\n*   **エラー内容:** PPドメインやADaMデータセットで、PKパラメータ（例: AUC、Cmax）の単位（PPORRESU, AVALU）が欠損している、またはCDISC Controlled Terminology（CT）に存在しない単位が使用されている。\n*   **対処法:**\n    *   SDTM.PPドメインでは`PPORRESU`、ADaMでは`AVALU`に適切な単位を必ず設定します。\n    *   CDISC CT（Controlled Terminology）に準拠した単位（例: 'ng*hr/mL', '%', 'ug/mL'）を使用します。CTにない場合は、`--ORRESU`（SDTM）や`AVALU`（ADaM）にはCTにある一般的な単位を設定し、`--STRESU`（SDTM）には変換前の単位を記載します。Define-XMLでその旨を明確に記述します。\n\n### 2. 用量設定（DOSE）の不整合\n\n*   **エラー内容:** EXドメインの用量（EXDOSE）とPK/PDモデルで考慮された用量が一致しない、または投与経路（EXROUTE）が不明瞭。\n*   **対処法:**\n    *   EXドメインの用量情報を正確に記録し、モデル解析で使用した用量とSDTM/ADaMの用量変数が一致していることを確認します。\n    *   投与経路（EXROUTE）もCDISC CTに準拠させ、必要に応じてDefine-XMLで詳細を記述します。\n\n### 3. Define-XMLでの導出ロジックの不明瞭さ\n\n*   **エラー内容:** ADaMデータセットの導出変数（例: AUC、TRPER）について、Define-XMLの`Method`要素や`Comment`要素で導出ロジックが十分に記述されていない。\n*   **対処法:**\n    *   特にMIDDの解析で得られた変数については、その計算方法、使用したモデル、参照したデータソース、解析ソフトウェアなどを具体的にDefine-XMLに記述します。これにより、規制当局がデータの内容を理解しやすくなります。\n    *   例：「AUCは薬物動態モデル（例：非線形混合効果モデル）により、Phoenix WinNonlin 8.3を用いて個々の被験者から推定された。」\n\nこれらのエラーは、CDISC準拠のデータ品質を確保し、規制当局の審査を円滑に進める上で非常に重要です。Pinnacle 21のようなバリデーションツールを開発段階から活用し、継続的にデータ品質をチェックすることをお勧めします。\n\n## よくある質問（FAQ）\n\n**Q1: MIDDはどのような**臨床開発**フェーズで最も有効ですか？**\n\nA1: MIDDは、第I相から第III相までの**臨床開発**のすべてのフェーズで有効ですが、特に第I相後半から第II相の**用量選択**と試験デザイン最適化において最大の効果を発揮します。初期段階で適切な用量を設定することで、後のフェーズでの失敗リスクを低減し、開発を加速できます。\n\n**Q2: **がん領域**におけるMIDDの最大のメリットは何ですか？**\n\nA2: **がん領域**では、患者さんの病態の多様性や薬剤の毒性プロファイルが複雑であるため、MIDDは個別化医療への貢献、適切な**用量選択**による効果と安全性の最大化、そして**臨床開発**の迅速化に大きく寄与します。特に希少がんや小児がんでは、限られたデータから最大の情報を得るためにMIDDが不可欠です。\n\n**Q3: FDA/PMDAへのMIDD関連データ提出で、特に注意すべきCDISCドメインは何ですか？**\n\nA3: 主にSDTMのPC（Pharmacokinetics Concentration）、PP（Pharmacokinetics Parameters）、RS（Response to Treatment）、TU（Tumor Measurements）ドメイン、そしてそれらを基に作成されるADaMのADPC（Analysis Data Pharmacokinetics Concentration）、ADPP（Analysis Data Pharmacokinetics/Pharmacodynamics）データセットに注意が必要です。これらのドメインで、正確かつCDISC標準に準拠したデータが作成されていることが重要です。また、Define-XMLで導出ロジックを詳細に記述することも不可欠です。\n\n**Q4: **規制科学**とMIDDはどのように関連していますか？**\n\nA4: **規制科学**は、規制当局が科学的根拠に基づいた意思決定を行うための研究であり、MIDDはその重要なツールの一つです。MIDDによって得られたモデルベースの知見は、**用量選択**、試験デザイン、および安全性評価において、より確固たる科学的根拠を規制当局に提示することを可能にします。これにより、より迅速かつ効率的な審査プロセスに貢献します。\n\n**Q5: SASプログラマーとして、MIDDの知識を深めるにはどうすれば良いですか？**\n\nA5: SASプログラマーは、PK/PDモデル解析結果をCDISC標準にマッピングする重要な役割を担います。まずは、CDISC SDTM IGおよびADaM IGの最新版を熟読し、特にPK/PD関連のドメインと変数についての理解を深めてください。また、製薬統計家やPK/PDモデリング専門家との連携を密にし、彼らの解析要件をCDISCデータに落とし込むスキルを磨くことが重要です。SASのプログラミングスキルに加え、統計解析の基礎知識や、**規制科学**に関する最新のガイドライン（FDA Project Optimusなど）にも目を通すことをお勧めします。\n\n## CDISC実務に役立つリソース\n\nこの記事の内容をさらに深めるために、以下のリソースが役立ちます。\n\n- **[Amazon CDISC書籍](https://www.amazon.co.jp?tag=musclelove07-22)** - CDISC・臨床データ標準の参考書\n- **[Udemy SAS講座](https://www.udemy.com)** - 動画で学ぶCDISC実装\n- **[楽天 医薬品開発書籍](https://www.rakuten.co.jp)** - 製薬・臨床開発の参考書\n\n*上記リンクからご利用いただくと、サイト運営の支援になります。*\n\n\n## まとめ\n\n本記事では、**がん領域**における**MIDD**（モデルに基づく医薬品開発）の重要性、**用量選択**の最適化、そして**規制科学**の観点からFDA/PMDAへのデータ提出における**臨床開発**の最新動向と対応ポイントを解説しました。\n\nFDAの「Project Optimus」に代表されるように、**MIDD**は、従来の医薬品開発プロセスを革新し、患者さんに最適な治療をより迅速に届けるための強力なツールです。日本の製薬企業・CROの実務担当者の皆様には、海外の最新規制動向を常に把握し、CDISC標準に則った質の高いデータ作成と、**規制科学**に基づいた適切な**用量選択**戦略を推進することが求められます。\n\n私自身も長年のSASプログラマーとして、これらの新しいアプローチが日本の**臨床開発**現場に定着し、患者さんのQOL向上に貢献できるよう、今後も情報発信を続けてまいります。一緒にCDISCデータ標準の奥深い世界を航海していきましょう！\n",
  "meta_description": "がん領域におけるMIDD（モデルに基づく医薬品開発）の最新トレンドを解説。FDA/PMDA申請で成功するための用量選択戦略、規制科学、CDISCデータ提出のポイントをベテランSASプログラマーが徹底指南します。",
  "tags": [
    "MIDD",
    "がん領域",
    "用量選択",
    "規制科学",
    "臨床開発",
    "CDISC",
    "FDA",
    "PMDA",
    "SASプログラミング",
    "電子データ提出"
  ],
  "slug": "midd-oncology-dose-selection-regulatory-science-clinical-development",
  "faq": [
    {
      "question": "MIDDはどのような臨床開発フェーズで最も有効ですか？",
      "answer": "MIDDは、第I相後半から第II相の用量選択と試験デザイン最適化において最大の効果を発揮します。初期段階で適切な用量を設定することで、後のフェーズでの失敗リスクを低減し、開発を加速できます。"
    },
    {
      "question": "がん領域におけるMIDDの最大のメリットは何ですか？",
      "answer": "がん領域では、個別化医療への貢献、適切な用量選択による効果と安全性の最大化、そして臨床開発の迅速化に大きく寄与します。特に希少がんや小児がんでは、限られたデータから最大の情報を得るためにMIDDが不可欠です。"
    },
    {
      "question": "FDA/PMDAへのMIDD関連データ提出で、特に注意すべきCDISCドメインは何ですか？",
      "answer": "SDTMのPC、PP、RS、TUドメイン、そしてそれらを基に作成されるADaMのADPC、ADPPデータセットに注意が必要です。Define-XMLで導出ロジックを詳細に記述することも不可欠です。"
    },
    {
      "question": "規制科学とMIDDはどのように関連していますか？",
      "answer": "規制科学は、規制当局が科学的根拠に基づいた意思決定を行うための研究であり、MIDDはその重要なツールの一つです。MIDDによって得られた知見は、用量選択、試験デザイン、安全性評価において、より確固たる科学的根拠を規制当局に提示することを可能にします。"
    },
    {
      "question": "SASプログラマーとして、MIDDの知識を深めるにはどうすれば良いですか？",
      "answer": "CDISC SDTM IGおよびADaM IGの最新版を熟読し、PK/PD関連のドメインと変数についての理解を深めることが重要です。製薬統計家やPK/PDモデリング専門家との連携を密にし、解析要件をCDISCデータに落とし込むスキルを磨いてください。"
    }
  ],
  "hero_emoji": "📝",
  "hero_gradient": "135deg",
  "keyword": "MIDD, がん領域, 用量選択, 規制科学, 臨床開発",
  "category": "規制当局対応",
  "generated_at": "2026-04-21T05:27:21.667983",
  "has_affiliate": true,
  "affiliate_count": 3,
  "eyecatch_url": "https://images.unsplash.com/photo-1507679799987-c73779587ccf?w=1200&h=630&fit=crop&auto=format&q=80",
  "eyecatch_credit": "Photo from [Unsplash](https://unsplash.com/)"
}