{
  "title": "MIDD×ADaM！オンコロジー用量選択の規制戦略",
  "content": "# MIDD×ADaM！オンコロジー用量選択の規制戦略\n\n![MIDD×ADaM！オンコロジー用量選択の規制戦略](https://images.unsplash.com/photo-1526628953301-3e589a6a8b74?w=1200&h=630&fit=crop&auto=format&q=80)\n\n*Photo from [Unsplash](https://unsplash.com/)*\n\n\n## この記事でわかること\n*   MIDD（Model-Informed Drug Development）がオンコロジー領域の用量選択とADaM（Analysis Data Model）設計に与える影響\n*   用量選択をサポートするADaM設計の具体例とSASコードによる実装方法\n*   FDA（米国食品医薬品局）とPMDA（医薬品医療機器総合機構）におけるMIDDとADaMの最新規制動向\n*   日本の製薬企業・CRO（医薬品開発業務受託機関）が取るべき実務対応ポイント\n\n## 結論から言うと\nMIDDはオンコロジー領域の最適な用量選択を導き、規制当局との円滑な対話を促進する強力なアプローチです。このMIDD解析結果を効率的かつ透明性高く伝えるには、CDISC ADaMデータセットの適切な設計と実装が不可欠となります。最新の規制動向を理解し、洗練されたADaM設計とSASプログラミングで、早期承認を目指しましょう。\n\n## MIDDとADaMとは？\n\n### MIDD（Model-Informed Drug Development）とは？\nMIDDは、モデルとシミュレーションを薬物開発の意思決定に体系的に組み込むアプローチです。薬物動態（PK）モデル、薬力学（PD）モデル、用量反応モデルなどを活用し、臨床試験デザインの最適化や**用量選択**を支援します。オンコロジー（腫瘍学）領域では、複雑な作用機序や多様な患者背景を考慮した**用量選択**が特に重要であり、MIDDは以下の課題解決に貢献します。\n*   **初期開発段階での用量設定:** フェーズ1/2試験の限られたデータから最適な用量を推定します。\n*   **曝露反応関係の解明:** 薬物の体内濃度（曝露量）と効果・安全性（反応）の関係をモデル化し、個別最適化の根拠を提供します。\n*   **特殊集団（小児など）への用量外挿:** 成人データから特殊集団への用量設定を科学的にサポートします。\n\n### ADaM（Analysis Data Model）とは？\nADaMは、CDISC（Clinical Data Interchange Standards Consortium）が策定した、統計解析を行うための標準データセットのモデルです。解析の再現性、透明性、効率性を高め、**規制当局**への申請プロセスを円滑にします。主要な構造は以下の通りです。\n*   **ADSL (Subject-Level Analysis Dataset):** 被験者レベルの解析データセット（人口統計、治療割り付けなど）。\n*   **BDS (Basic Data Structure):** 被験者・解析項目・解析時点レベルの解析データセット（バイタルサイン、腫瘍径、有害事象など繰り返し測定されるデータ）。\n*   **ADTTE (Analysis Data for Time-to-Event):** イベント発生までの時間解析データセット（生存時間解析など）。\n\nオンコロジー領域における**用量選択**の**ADaM設計**では、特にADSLとBDSが中心となります。MIDD解析の結果や、解析に用いられた変数群を**ADaM**に格納することで、**規制当局**がモデルの妥当性や結果の信頼性を検証しやすくなります。\n\n## 実務での使い方・実装手順：MIDD解析をサポートするADaM設計\n\nMIDD解析で得られた知見や、その解析に用いられた重要な変数を**ADaM**データセットに組み込むことは、**規制当局**への提出において非常に重要です。ここでは、オンコロジー領域の**用量選択**を目的とした**ADaM設計**の具体例とSASコードを紹介します。\n\n### ステップ1: ADSL (Subject-Level Analysis Dataset) への重要変数の追加\n\n**用量選択**では、個々の被験者の曝露量や用量情報、主要な患者特性が重要です。これらをADSLに集約し、被験者レベルでの用量反応関係や曝露反応関係の基礎データを提供します。\n\n**【追加する変数の例】**\n*   **CUMDOSE:** 累積投与量（治療期間全体の総投与量）\n*   **AVGAUC:** 平均曝露量（PK解析から導出されるAUCtauなど）\n*   **DOSEGRPN:** 用量群番号（例: 5mg, 10mg, 20mg群など）\n*   **DOSEINT:** 用量強度（例: mg/m^2/weekなど、投与量と体表面積・期間を考慮）\n\n**【SASコード例: ADSLへの変数導出】**\n```sas\n/* SDTM.EX (Exposure) から累積投与量を計算 */\nproc sql;\n  create table EX_CUM as\n  select USUBJID, sum(EXDOSE) as CUMDOSE /* 各USUBJIDごとの総投与量 */\n  from SDTM.EX\n  group by USUBJID;\nquit;\n\n/* PK解析結果から平均AUCを導出 (ここでは簡略化) */\ndata PC_AUC; /* 実際はPK解析ツール出力を使用 */\n  set SDTM.PC; \n  AVGAUC = 100 * (USUBJID + RANUNI(0)); /* ダミー値 */\n  keep USUBJID AVGAUC;\nrun;\n\n/* ADSLにCUMDOSE, AVGAUC, DOSEGRPN, DOSEINTをマージ・導出 */\ndata ADSL_UPDATED;\n  merge ADSL EX_CUM (keep=USUBJID CUMDOSE) PC_AUC (keep=USUBJID AVGAUC);\n  by USUBJID;\n\n  /* 例: MAXEXDOSE (ADSL既存変数) に基づく用量群・用量強度定義 */\n  if MAXEXDOSE <= 5 then DOSEGRPN = 1;\n  else if MAXEXDOSE > 5 and MAXEXDOSE <= 10 then DOSEGRPN = 2;\n  else DOSEGRPN = 3;\n  DOSEINT = MAXEXDOSE / 1.73 / 10; /* 例: 最大投与量/BSA/期間 */\n  label CUMDOSE = \"Cumulative Dose (mg)\"\n        AVGAUC  = \"Average AUCtau (ng*hr/mL)\"\n        DOSEGRPN= \"Dose Group Number\"\n        DOSEINT = \"Dose Intensity (mg/m^2/day)\";\nrun;\n```\n**【マッピング例】**\n*   SDTM.EX.EXDOSE -> ADSL.CUMDOSE (SUM集計)\n*   PK解析結果 -> ADSL.AVGAUC\n*   ADSL.MAXEXDOSE -> ADSL.DOSEGRPN (レンジ変換)\n\n### ステップ2: 用量反応解析のためのADaM BDS (Basic Data Structure) の設計\n\n**用量選択**の主要な目的は、特定の用量と効果（例: 腫瘍縮小率）や安全性との関係を評価することです。これをBDSデータセットで表現します。例として、腫瘍縮小率の**ADaM BDS**であるADTR (`Analysis Data for Tumor Response`) を作成します。\n\n**【ADTRデータセットの例】**\n*   **目的:** 腫瘍縮小率の用量反応関係を評価。\n*   **変数例:** `PARAM` (解析項目), `PARMCD` (解析項目コード), `AVAL` (解析値: 腫瘍径変化率), `BASE` (ベースライン腫瘍径), `PCHG` (変化率), `ADY` (解析対象時点の投与からの日数), `AVISIT` (解析対象訪問), `ANLFL` (解析対象フラグ)\n\n**【SASコード例: ADTRデータセットの作成】**\n```sas\n/* SDTM.TU (Tumor) からベースライン情報を取得 */\ndata TU_BL;\n  set SDTM.TU; where TULOC is not missing and TUSTRESC is not missing;\n  if VISITNUM = 0 or ADY = 0 then do; /* ベースライン時点を特定 */\n    BASE_TUSTRESC = TUSTRESC;\n    keep USUBJID BASE_TUSTRESC;\n  end;\nrun;\nproc sort data=TU_BL nodupkey; by USUBJID; run;\n\n/* SDTM.TUからADTRを作成 */\ndata ADTR;\n  merge SDTM.TU (in=a) TU_BL (in=b) ADSL (keep=USUBJID TRT01P TRT01PN SEX AGE);\n  by USUBJID;\n  if a;\n\n  /* ベースラインからの変化率を計算 (TUSTRESC, BASE_TUSTRESCは数値と仮定) */\n  if TUSTRESC is not missing and BASE_TUSTRESC is not missing and input(BASE_TUSTRESC, best.) ~= 0 then do;\n    PCHG = ((input(TUSTRESC, best.) - input(BASE_TUSTRESC, best.)) / input(BASE_TUSTRESC, best.)) * 100;\n  end;\n  else PCHG = .; \n\n  /* ADaM変数へのマッピング */\n  PARAMCD = 'PCTCHG';\n  PARAM   = 'Percentage Change from Baseline in Tumor Size (%)';\n  AVAL    = PCHG;\n  BASE    = input(BASE_TUSTRESC, best.);\n  ADY     = ADY; AVISIT  = VISIT; AVISITN = VISITNUM; ANLFL = 'Y';\n\n  label PARAMCD = \"Parameter Code\" PARAM   = \"Parameter\"\n        AVAL    = \"Analysis Value\" BASE    = \"Baseline Value\"\n        PCHG    = \"Percentage Change from Baseline\" ADY = \"Analysis Relative Day\";\nrun;\n```\n**【マッピング例】**\n*   SDTM.TU.TUSTRESC (数値変換) -> ADTR.AVAL, ADTR.PCHG\n*   SDTM.TU (ベースライン値) -> ADTR.BASE\n*   ADSL (治療群, 人口統計情報) -> ADTR (マージ)\n\n### Define-XMLへの記述\n上記で追加・導出した**ADaM**変数については、Define-XMLに詳細な情報（変数名、ラベル、タイプ、コードリスト、派生ロジックなど）を記述することが必須です。MIDDで用いられる派生変数は特に、導出ロジックを明確に記載することで、**規制当局**による検証を容易にします。\n\n## 海外の最新動向：MIDDとADaMに関するFDA/EMAの期待\n\n**規制当局**は、医薬品開発の効率化と科学的根拠の強化のためにMIDDの活用を強く推奨しており、**ADaM**はMIDDの結果を効果的に伝えるための重要なツールと位置づけられています。\n\n### FDA（米国食品医薬品局）の動向\nFDAは「Model-Informed Drug Development: An Evolving Science」などのガイダンスを通じてMIDDの導入を推進しています。**オンコロジー**領域では、**用量選択**の最適化や小児への用量外挿などがMIDDの適用例です。FDAは、モデル構築に使用されたデータや主要なシミュレーション結果を、**ADaM**標準に従って構造化して提出することを期待しています。これにより、審査官はモデルの入力・出力データを容易に検証できます。\n**出典:** [FDA Guidance Documents - Model-Informed Drug Development](https://www.fda.gov/drugs/guidance-compliance-regulatory-information/guidances-drugs)\n\n### EMA（欧州医薬品庁）の動向\nEMAもFDAと同様に、薬物開発におけるモデリング＆シミュレーションの活用を積極的に推奨しています。Scientific Advice（科学的助言）プログラムを通じてMIDDアプローチの妥当性について助言を提供し、特に**オンコロジー**領域での**用量選択**や個別化医療におけるMIDDの貢献に注目しています。\n**出典:** [European Medicines Agency - Modelling and Simulation](https://www.ema.europa.eu/en/human-regulatory/research-development/modelling-simulation)\n\n### CDISC標準の更新情報\nCDISC **ADaM** Working Groupでは、新しい解析手法やデータタイプに対応するため、**ADaM** IG（Implementation Guide）の改訂を継続しています。MIDDの活用拡大に伴い、モデル入力データやモデルパラメータを格納するための標準的な**ADaM設計**パターンが将来的に追加される可能性もあります。\n\n## 日本での対応ポイント：PMDA固有の要件と国内実務\n\nPMDA（医薬品医療機器総合機構）もMIDDの活用を積極的に推進しており、FDA/EMAの動向と概ね足並みを揃えています。\n\n### PMDAのMIDDへのスタンス\nPMDAは、「新しいモダリティにおける薬物動態学と薬力学に基づく用法・用量設定」などの文書でMIDDの活用に対する期待を示し、**用量選択**におけるMIDDの貢献に期待しています。また、「薬事戦略相談」や「対面助言」を通じて、MIDDを用いた開発戦略や解析計画について相談を受け付けています。\n\n### FDA/PMDA要件の違いと補足\n基本的なMIDDの考え方や**ADaM**データセットの重要性については大きな違いはありませんが、提出資料の詳細度や相談プロセスの運用で若干の違いが生じることがあります。\n\n| 項目         | FDA (米国)                                    | PMDA (日本)                                       |\n| :----------- | :-------------------------------------------- | :------------------------------------------------ |\n| **MIDD推奨度** | 高い。専用ガイダンスやプログラムを積極的に展開。 | 高い。薬事戦略相談や対面助言で支援。            |\n| **ADaM提出** | 必須。詳細なメタデータと導出ロジックを要求。   | 必須。詳細なメタデータと導出ロジックを要求。  |\n| **相談プロセス** | Formal Meetingsが中心。                      | 対面助言、薬事戦略相談が中心。きめ細かい対話が可能。 |\n\n**【日本の実務への落とし込みアドバイス】**\n1.  **早期のPMDA相談:** MIDDを活用する場合は、開発の早期にPMDAの薬事戦略相談などを利用し、MIDD解析計画や、**ADaM**での提示方法について事前に合意形成を図ることが重要です。\n2.  **Define-XMLの徹底:** MIDDで導出された変数や、解析に使用された重要な中間変数については、Define-XMLに導出ロジックを正確かつ詳細に記述してください。PMDAはDefine-XMLの内容を重視します。\n3.  **既存のADaM IGとの整合性:** **ADaM** IGに準拠した設計を基本としつつ、MIDDに必要な変数を追加する形を推奨します。既存の標準構造を逸脱しないよう注意し、追加する変数はその必要性と導出ロジックを明確に説明できるよう準備しましょう。\n\n## よくあるエラーと対処法：Pinnacle 21エラー、バリデーションTips\n\nMIDD関連の**ADaM**データセットを提出する際によくあるエラーとその対処法、バリデーションのヒントをご紹介します。\n\n### Pinnacle 21バリデーションエラー例\n*   **ADaM変数名の誤り/不足:** **ADaM** IGに準拠した変数名を使用し、必須変数が欠落していないか確認しましょう。MIDDで新規作成する変数は、既存変数名との重複を避け、明確なラベルとDefine-XMLでの記述が必要です。\n*   **Define-XMLとデータセットの不一致:** Define-XMLで定義された変数や属性が、実際の**ADaM**データセットと一致しないケースが多発します。特に、MIDDで導出された新しい変数のDescriptionやOrigin、Derivation Methodの記載漏れに注意してください。\n*   **導出ロジックの不明確さ:** MIDDで追加された変数の導出ロジックがDefine-XMLに記載されていない、または曖昧な場合、**規制当局**による検証が困難になります。SASコード例や詳細な計算式をDefine-XMLの`<MethodDef>`エレメントに具体的に記載しましょう。\n\n### バリデーションTips\n*   **Define-XMLファースト:** **ADaM**データセットを作成する前に、Define-XMLで全ての変数とその導出ロジックを定義し、それを基にSASプログラミングを行うアプローチを推奨します。\n*   **クロスチェック:** **ADaM**データセットとDefine-XML、解析用SASプログラムが整合していることを複数人でクロスチェックしましょう。\n*   **モデル入力データとの整合性:** MIDD解析に使用されたデータと、**ADaM**として提出するデータ、そして実際にモデルが構築された際に使用された入力データが、全て一貫していることを確認します。特に、欠損値の扱いや単位変換に注意してください。\n\n## よくある質問（FAQ）\n\n## CDISC実務に役立つリソース\n\nこの記事の内容をさらに深めるために、以下のリソースが役立ちます。\n\n- **[Amazon CDISC書籍](https://www.amazon.co.jp?tag=musclelove07-22)** - CDISC・臨床データ標準の参考書\n- **[Udemy SAS講座](https://www.udemy.com)** - 動画で学ぶCDISC実装\n- **[楽天 医薬品開発書籍](https://www.rakuten.co.jp)** - 製薬・臨床開発の参考書\n\n*上記リンクからご利用いただくと、サイト運営の支援になります。*\n\n\n## まとめ\n\n本記事では、MIDD（Model-Informed Drug Development）が**オンコロジー**領域の**用量選択**においていかに重要か、そしてその結果を**規制当局**に伝える上で**ADaM**（Analysis Data Model）が果たす役割について解説しました。\n\nMIDDは、限られたデータから最適な**用量選択**を科学的に導き出し、医薬品開発を加速させる強力なアプローチです。この成果を**規制当局**に透明性高く、かつ効率的に提示するためには、CDISC **ADaM**データセットの適切な**設計**とSASによる実装が不可欠となります。**ADSL**や**BDS**にMIDD解析に必要な変数を組み込み、明確な導出ロジックとともにDefine-XMLで記述することで、データの一貫性と検証可能性を確保できます。\n\nFDA、EMA、PMDAといった世界の主要な**規制当局**は、いずれもMIDDの活用を推奨しており、**ADaM**はグローバル申請における共通言語としての役割を担っています。常に最新の規制動向をフォローし、日本の実務に合わせた対応ポイントを押さえながら、洗練された**ADaM設計**とSASプログラミングスキルで、未来の医薬品開発を加速させましょう。\n",
  "meta_description": "MIDDを活用したオンコロジー領域の用量選択とADaM設計、FDA/PMDA規制要件をベテランSASプログラマーが解説。日本の実務に役立つ情報満載。",
  "tags": [
    "CDISC",
    "ADaM",
    "MIDD",
    "オンコロジー",
    "用量選択",
    "規制当局",
    "FDA",
    "PMDA",
    "SASプログラミング",
    "データ標準"
  ],
  "slug": "midd-oncology-dose-selection-adam-regulatory",
  "faq": [
    {
      "question": "MIDD解析で用いる変数はすべてADaMに含めるべきですか？",
      "answer": "MIDD解析に直接使用された主要な変数（モデルの入力変数、出力変数、共変量など）はADaMに含めることが強く推奨されます。特に、規制当局がモデルの妥当性を検証するために必要な情報は含めるべきです。モデル構築における中間変数や、診断プロットのみに使用された変数は、必要に応じてDefine-XMLで記述するか、関連資料として提供を検討します。すべての変数をADaMに入れる必要はありませんが、透明性を高めることが重要です。"
    },
    {
      "question": "オンコロジー試験での用量選択ADaMの必須変数とは？",
      "answer": "オンコロジー試験の用量選択を目的としたADaMでは、以下の変数が特に重要です。\n*   **用量レベル、用量強度:** 実際に投与された用量に関する情報。\n*   **投与期間、累積投与量:** 治療の継続性や総曝露量を示す。\n*   **曝露量:** PK解析から導出されるAUCやCmaxなど。\n*   **効果判定:** 腫瘍径の変化（RECIST）、病勢コントロール率など。\n*   **安全性評価:** 用量関連の有害事象の発生率や重症度。\nこれらの変数をADSLやBDSに適切に格納し、Define-XMLで詳細を記述することが求められます。"
    },
    {
      "question": "FDAとPMDAでMIDDのADaM要件に違いはありますか？",
      "answer": "基本的なMIDDの活用推奨とADaMデータセットによる裏付けの重要性については、FDAとPMDAで大きな違いはありません。しかし、個別の案件における期待される詳細度や、例えばDefine-XMLでの日本語記述の有無、相談プロセスの進め方などに若干の違いが生じる可能性があります。最も重要なのは、開発の早期段階から両規制当局と積極的にコミュニケーションを取り、提出すべきデータやそのフォーマットについて合意形成を図ることです。"
    }
  ],
  "hero_emoji": "📝",
  "hero_gradient": "135deg",
  "keyword": "MIDD, オンコロジー, 用量選択, ADaM, 規制当局",
  "category": "ADaM設計パターン",
  "generated_at": "2026-04-07T05:09:45.293243",
  "has_affiliate": true,
  "affiliate_count": 3,
  "eyecatch_url": "https://images.unsplash.com/photo-1526628953301-3e589a6a8b74?w=1200&h=630&fit=crop&auto=format&q=80",
  "eyecatch_credit": "Photo from [Unsplash](https://unsplash.com/)"
}