{
  "title": "承認審査と臨床データ提出：規制当局対応の最新戦略",
  "content": "# 承認審査と臨床データ提出：規制当局対応の最新戦略\n\n![承認審査と臨床データ提出：規制当局対応の最新戦略](https://images.unsplash.com/photo-1554224155-6726b3ff858f?w=1200&h=630&fit=crop&auto=format&q=80)\n\n*Photo from [Unsplash](https://unsplash.com/)*\n\n\n## この記事でわかること\n*   FDA（米国食品医薬品局）、PMDA（医薬品医療機器総合機構）、EMA（欧州医薬品庁）の承認審査における臨床データ提出の基本と最新要件\n*   eCTD（electronic Common Technical Document）とCDISC（Clinical Data Interchange Standards Consortium）標準（SDTM、ADaM、Define-XML、CT）の具体的な活用法\n*   SASプログラマーが押さえるべきデータバリデーションの重要ポイントとよくあるエラー対処法\n*   海外の規制トレンド（FDA/EMA）とPMDA（日本の規制当局）固有の要件、および日本の実務への適用方法\n*   臨床データ提出に関するよくある質問とその回答で疑問を解消\n\n## 結論から言うと\n医薬品の承認審査を成功させるには、CDISC標準に準拠した高品質な臨床データ提出が不可欠です。FDA、PMDA、EMAではそれぞれ異なる最新の技術要件ガイドが存在し、これを正確に理解し、徹底したバリデーションを実施することが鍵となります。特にSASプログラマーは、標準化されたデータセットの作成と、そのメタデータを記述するDefine-XMLの質に注力することで、承認プロセスをスムーズに進められます。\n\n## 臨床データ提出と承認審査とは？\n新薬の開発において、臨床試験で得られた膨大なデータは、その医薬品の安全性と有効性を証明するための最も重要な証拠となります。これらの臨床データを規制当局（FDA、PMDA、EMAなど）に提出し、審査を受けるプロセスが「臨床データ提出」であり、これをもって医薬品の市場投入が承認されることを目指すのが「承認審査」です。\n\n現在、主要な規制当局では、臨床データを「eCTD（electronic Common Technical Document）」という電子的な共通フォーマットで提出することが義務付けられています。eCTDのモジュール5.3.5に、CDISC（Clinical Data Interchange Standards Consortium）標準に準拠した「SDTM（Study Data Tabulation Model）」データセット、「ADaM（Analysis Data Model）」データセット、そしてそれらのメタデータを記述する「Define-XML」などが格納されます。\n\nこれらのCDISC標準は、臨床試験データを構造化し、規制当局がデータを効率的かつ正確にレビューできるようにするための国際的な枠組みです。データが標準化されていることで、規制当局は異なる試験間や異なる企業からのデータを比較・統合しやすくなり、承認審査の透明性と効率性が大きく向上します。\n\n## 実務での使い方・実装手順\nSASプログラマーにとって、CDISC標準に準拠した臨床データセットを作成することは、日々の重要な業務です。ここでは、SDTMとADaMデータの作成、およびDefine-XMLの重要性について、具体的なSASコード例を交えながら解説します。\n\n### ステップ1：SDTMデータセットの作成\nSDTMは、症例報告書（CRF）から収集された生データを標準的なドメイン構造にマッピングしたデータセットです。各ドメインには、被験者（DM）、有害事象（AE）、併用薬（CM）、検査値（LB）などがあり、それぞれのIG（Implementation Guide）に従って変数を定義します。SDTM作成は、ADaM作成の基盤となります。\n\n```sas\n/* SDTM DMドメインからのサブジェクトリスト作成例 */\n/* この例では、架空の生データ (raw.subject_data) からSDTM DMドメインを模倣したデータセットを作成します */\ndata sdtm.dm;\n    set raw.subject_data;\n    /* SDTM変数のマッピングと派生 */\n    USUBJID = catx('-', 'STUDYABC', left(put(SUBJID, z4.))); /* ユニーク被験者識別子 */\n    DOMAIN = 'DM'; /* ドメインコード */\n    RFSTDTC = put(datepart(RANDDT), yymmdd10.); /* 治験薬初回投与日 */\n    RFENDTC = put(datepart(ENDDT), yymmdd10.);   /* 治験薬最終投与日 */\n    AGE = input(AGEMN, 8.); /* 年齢 */\n    SEX = SEXCD; /* 性別 */\n    RACE = RACECD; /* 人種 */\n    \n    /* その他SDTM必須変数や推奨変数をマッピング */\n    STUDYID = 'STUDYABC';\n    SUBJID = put(SUBJID, z4.);\n    SITEID = put(SITEID, z3.);\n    \n    label USUBJID = 'Unique Subject Identifier'\n          RFSTDTC = 'Date of First Study Treatment'\n          RFENDTC = 'Date of Last Study Treatment'\n          AGE = 'Age (Years)'\n          SEX = 'Sex'\n          RACE = 'Race';\nrun;\n\nproc contents data=sdtm.dm varnum;\n    title 'SDTM DMドメイン 変数リスト';\nrun;\n\nproc print data=sdtm.dm (obs=5);\n    title 'SDTM DMドメイン サンプルデータ';\nrun;\n```\n\n### ステップ2：ADaMデータセットの作成\nADaMは、SDTMデータから統計解析に特化した解析用データセットを作成するモデルです。解析用被験者リスト（ADSL）や解析用エンドポイントデータセット（ADPCなど）が含まれます。ADaMデータは、SDTMデータよりも解析に直接利用しやすいように、派生変数（例：投与群、特定の時点での変化量）が追加されます。ADaMもIGに従って変数を定義し、データのトレーサビリティ（追跡可能性）を確保することが重要です。\n\n```sas\n/* ADaM ADSLドメインからの派生変数AGEGR1作成例 */\n/* この例では、上記で作成したSDTM DMデータからADSLを構築し、AGEGR1を派生させます */\ndata adam.adsl_derived;\n    set sdtm.dm; /* SDTM DMドメインをADSLのベースとする */\n    \n    /* ADSL必須・推奨変数 */\n    TRT01P = 'Treatment A'; /* 計画治療群 (例として設定) */\n    TRT01A = 'Treatment A'; /* 実際治療群 (例として設定) */\n    SAFFL = 'Y'; /* 安全性解析対象フラグ (例として設定) */\n    EFFFL = 'Y'; /* 有効性解析対象フラグ (例として設定) */\n    RANDFL = 'Y'; /* 無作為化フラグ (例として設定) */\n\n    /* AGEからの派生変数AGEGR1 */\n    if AGE < 18 then AGEGR1 = 'Under 18';\n    else if AGE <= 64 then AGEGR1 = '18-64';\n    else AGEGR1 = '65 or Older';\n    \n    label AGEGR1 = 'Age Group Category 1'\n          TRT01P = 'Planned Treatment Group'\n          TRT01A = 'Actual Treatment Group'\n          SAFFL = 'Safety Analysis Flag'\n          EFFFL = 'Efficacy Analysis Flag'\n          RANDFL = 'Randomized Flag';\nrun;\n\nproc freq data=adam.adsl_derived;\n    tables AGEGR1;\n    title 'ADSLのAGEGR1分布';\nrun;\n```\n\n### ステップ3：Define-XMLの作成\nDefine-XMLは、提出するすべてのCDISCデータセットのメタデータ（変数定義、コードリスト、派生ロジック、外部参照ファイルなど）を記述したXML形式のファイルです。これは規制当局がデータを理解し、レビューするための「辞書」として機能し、その正確性と完全性が極めて重要です。手作業での作成は複雑なため、通常は専用ツール（例: SAS Clinical Standards Toolkit, Pinnacle 21 Enterprise）やSASプログラムで自動生成されます。\n\nDefine-XMLには、各変数に関する詳細情報（データ型、長さ、ラベル、CDISC CT（Controlled Terminology）への準拠情報）、派生変数のロジック、そしてデータセット間の関連性などが含まれます。このファイルが不正確だと、データ提出のエラーやレビュー遅延の原因となるため、データセットとの一貫性を徹底的に検証する必要があります。\n\n## 海外の最新動向\n世界の規制当局は、臨床データ提出の効率化と品質向上を目指し、CDISC標準に関するガイダンスを常に更新しています。ここでは、FDA、EMA、そしてCDISC本部の最新動向をご紹介します。\n\n### FDA（米国食品医薬品局）\nFDAは、医薬品の承認申請においてCDISC標準データ提出を義務付けている主要な規制当局です。特に重要なのは「Study Data Technical Conformance Guide (SDTCG)」で、これは提出すべきデータ形式やCDISC標準のバージョン、バリデーションに関する具体的な要件を定めています。SDTCGは定期的に更新され、例えば新しいCDISC CTの推奨や、特定の疾患領域におけるTAUG（Therapeutic Area User Guide）の利用促進などが盛り込まれています。\n\n最近の更新では、Pinnacle 21などのバリデーションツールで検出される問題に対する対応方針や、非標準的なデータを提出する際の正当化文書（Non-Standard Data Justification）に関する詳細が強化されています。FDAはデータ提出後のレビュー効率を重視しており、提出データの品質と一貫性が厳しく求められます。\n\n出典: [FDA Study Data Technical Conformance Guide](https://www.fda.gov/drugs/regulatory-science-research-and-education/study-data-technical-conformance-guide)\n\n### EMA（欧州医薬品庁）\nEMAもまた、医薬品の承認審査においてCDISC標準データの提出を強く推奨しており、特に国際共同治験における標準化を重視しています。EMAのeSubmission Guidanceは、提出すべきCDISC標準のバージョンや、eCTDにおける配置方法について詳細な情報を提供しています。FDAと同様に、Pinnacle 21などのバリデーションツールの使用を推奨しており、高品質なデータ提出を促しています。\n\nEMAは、電子データ提出のグローバルな調和を目指しており、FDAの要件との整合性も考慮されつつ、欧州独自の法的枠組みやデータプライバシー規制（GDPRなど）に対応した要件が加わることもあります。EMAは、特定の疾患領域における標準化の取り組みも進めており、関連するガイダンスを随時発表しています。\n\n出典: [EMA eSubmission](https://www.ema.europa.eu/en/human-regulatory/research-development/electronic-submissions)\n\n### CDISC（Clinical Data Interchange Standards Consortium）\nCDISC本部は、SDTM IGやADaM IG、CDISC CTといった主要な標準のバージョンアップを継続的に行っています。例えば、SDTM IGの最新版では、新たなドメインの追加や既存ドメインの改訂、特殊なケース（例：遺伝子治療）への対応などが盛り込まれることがあります。また、CDASH（Clinical Data Acquisition Standards Harmonization）は、臨床試験データの収集段階から標準化を促進するための標準であり、SDTMへのマッピングを容易にするためにもその重要性が増しています。\n\n最新のCDISC標準の変更を常に把握し、自社のCDISCマッピングガイドラインやSASプログラムを適宜更新していくことが、コンプライアンス維持のために不可欠です。CDISC Libraryは、これらの最新情報を入手するための主要なリソースです。\n\n出典: [CDISC Library](https://www.cdisc.org/standards/library)\n\n## 日本での対応ポイント\nPMDA（医薬品医療機器総合機構）も、医薬品の承認審査において電子データ提出を義務付けており、CDISC標準の利用を強く推奨しています。PMDAの要件は、国際的な調和を重視しつつも、日本の規制環境に合わせた独自の解釈や運用が存在します。ここでは、PMDAの対応ポイントと、FDA要件との比較を表形式で示します。\n\n### PMDAの電子データ提出要件\nPMDAは「eCTD Application Technical Conformance Guide」および「治験実施計画書等に関する資料の電磁的記録による提出について」といったガイダンスを提供しており、電子データ提出に関する詳細な要件を定めています。FDAと同様に、SDTM、ADaM、Define-XML、CDISC CTの利用が原則として必須です。特に、国際共同治験においては、海外当局への提出データとの一貫性が求められます。\n\nPMDAは特定のバリデーションツールを必須とはしていませんが、提出データの品質を確保するために、Pinnacle 21などのグローバルなバリデーションツールの使用を推奨しており、バリデーションレポートの提出も推奨されています。また、PMDAの審査官がデータをレビューする際に利用するツールとの互換性も考慮する必要があります。\n\n### FDAとPMDAの要件比較\n| 項目 | FDA (米国食品医薬品局) | PMDA (医薬品医療機器総合機構) |\n| :--- | :--- | :--- |\n| **対象試験** | 米国で実施された臨床試験データ、米国への申請データ全般 | 国内で実施された臨床試験データ、国際共同治験の国内部分、日本への申請データ全般 |\n| **必須CDISC標準** | SDTM, ADaM, Define-XML, CT (原則必須) | SDTM, ADaM, Define-XML, CT (原則必須) |\n| **eCTDモジュール** | Module 5.3.5 (Study Data) | Module 5.3.5 (Study Data) |\n| **バリデーションツール** | Pinnacle 21を推奨 (事実上の標準) | Pinnacle 21の利用可能、バリデーションレポート提出を推奨 |\n| **技術要件ガイド** | Study Data Technical Conformance Guide (SDTCG) | eCTD Application Technical Conformance Guide (和文) |\n| **データ形式** | SAS XPT V5 (推奨) | SAS XPT V5 (推奨) |\n| **独自の注意点** | 非標準データの正当化、TAUG活用 | 日本語の変数が使われる場合のDefine-XMLの扱い、国内独自の症例報告書様式への対応 | \n\n### 日本の製薬企業・CROが直面する課題とアドバイス\n日本の製薬企業やCROがPMDAおよび海外当局へデータ提出を行う上で、最も重要なのは「グローバル標準への適応」です。国内独自の慣行から脱却し、国際的なCDISC標準と最新の規制要件に常に準拠することが求められます。\n\n*   **社内体制の強化:** CDISC専門知識を持つ人材の育成と、標準化されたデータ作成プロセスの確立が不可欠です。\n*   **ツールの活用:** Pinnacle 21などのバリデーションツールを積極的に導入し、データ作成の初期段階から品質チェックを行うことで、手戻りを最小限に抑えられます。\n*   **情報収集:** FDA、EMA、CDISC本部、そしてPMDAから発信される最新のガイダンスやトレーニング情報に常にアンテナを張り、組織全体で共有する体制を整えましょう。\n*   **早期からの計画:** 臨床試験計画段階からCDISCマッピングを意識し、データ収集段階（CRF設計）からCDASHに準拠することで、SDTM変換時の手間を大幅に削減できます。\n\n## よくあるエラーと対処法\n臨床データ提出におけるバリデーションは、承認審査をスムーズに進めるための最後の砦です。Pinnacle 21などのツールで検出される一般的なエラーとその対処法を理解しておくことが重要です。\n\n### Pinnacle 21エラーの例と対処法\nPinnacle 21は、CDISC標準に準拠しているかを自動でチェックしてくれる強力なツールです。ここでは、よくあるエラーとその対処法を紹介します。\n\n1.  **変数名、ラベル、データ型の不一致 (CDISC CT違反を含む)**\n    *   **エラー内容:** Define-XMLに記述された変数定義が、実際のXPTデータセットやCDISC IG、CDISC CTと一致しない場合（例：変数名がIGにない、ラベルが異なる、データ型が誤っている、コードリスト外の用語を使用している）。\n    *   **対処法:** Define-XMLの内容とXPTデータセット、および参照しているCDISC IG/CT（特に最新版）を徹底的に確認します。SASコードでデータセットを作成する際に、正しいラベルやフォーマットが適用されているかを検証しましょう。特にCDISC CTは頻繁に更新されるため、最新版に準拠しているかを確認することが重要です。\n\n2.  **日付/時間フォーマットエラー**\n    *   **エラー内容:** 日付や時間の変数がISO 8601形式（例: YYYY-MM-DD, YYYY-MM-DDTHH:MM）に準拠していない。\n    *   **対処法:** SASの`PUT`関数や`INPUT`関数を適切に使い、日付変数をISO 8601形式の文字列に変換します。SAS内部の日付値は数値ですが、CDISCデータセットに格納する際は文字列として整形する必要があります。時間情報を含む場合は、タイムゾーンの扱いに注意が必要です。\n\n3.  **必須変数の欠損 (Missing Required Variable)**\n    *   **エラー内容:** CDISC IGで必須とされている変数が、特定のドメインデータセットに存在しない、または全被験者で欠損している。\n    *   **対処法:** 該当するCDISC IGを参照し、必須変数がすべてデータセットに含まれているか、またデータが適切に収集されているかを確認します。データ収集段階で問題があった場合は、マッピング時に適切に処理するか、その理由をDefine-XMLや承認申請資料で説明する必要があります。\n\n4.  **派生ロジックの不透明性/不一致**\n    *   **エラー内容:** Define-XMLに記述された派生変数のロジックが不明確、または実際のデータセットでそのロジック通りに値が派生されていない。\n    *   **対処法:** 派生ロジックはDefine-XMLで明確に記述し、SASコードで実装されたロジックと完全に一致していることを確認します。可能な限り、SASコードのコメントやプログラムドキュメントも整備し、トレーサビリティを確保しましょう。\n\n### SASプログラミングでのTips\n*   **ログの徹底確認:** SASログは、プログラミングエラーやデータ処理上の問題を見つけるための宝庫です。WARNINGやERRORメッセージを無視せず、必ず内容を確認し対処しましょう。\n*   **マクロ変数の活用:** パス名やファイル名など、頻繁に変わる可能性のある情報はマクロ変数に定義しておくことで、プログラムのメンテナンス性を向上させ、エラー発生リスクを低減できます。\n*   **テストとクロスチェック:** データセット作成の各段階で中間データを生成し、SASプロシジャ（`PROC FREQ`, `PROC MEANS`, `PROC COMPARE`など）を用いて想定通りの結果になっているか、頻繁にクロスチェックを行うことが重要です。\n*   **バージョン管理:** プログラムやデータをGitなどのバージョン管理システムで管理し、変更履歴を明確にしておくことで、問題発生時の原因究明や過去バージョンへの復元が容易になります。\n\n## よくある質問（FAQ）\n\n### 質問1: CDISC標準の最新バージョンはどれを使えばよいですか？\n**回答:** 規制当局の最新の技術要件ガイド（例：FDA SDTCGやPMDAのeCTD Application Technical Conformance Guide）で指定されているCDISC標準のバージョンを使用するのが原則です。通常、最新版またはその直前の版が推奨されますが、古いバージョンでの提出が許可される場合もあります。治験開始時や申請準備開始時に、提出先の規制当局に確認し、プロジェクト内で使用バージョンを統一することが重要です。\n\n### 質問2: PMDAへの提出でもPinnacle 21は必須ですか？\n**回答:** PMDA自体は特定のバリデーションツールを必須とはしていませんが、提出データの品質を担保するためのバリデーションは強く推奨されており、その結果をバリデーションレポートとして提出することも推奨されています。Pinnacle 21はグローバルスタンダードとしてFDAやEMAでも広く利用されており、エラー検出能力が高いため、承認審査をスムーズに進める上で非常に有効です。日本の製薬企業やCROでも、Pinnacle 21を事実上の標準ツールとして導入しているケースがほとんどです。\n\n### 質問3: レガシーデータをCDISC変換する際の注意点は？\n**回答:** レガシーデータ（非CDISC形式）をSDTMに変換する際は、オリジナルのデータ定義を完全に理解し、詳細なマッピングガイドラインを事前に作成することが極めて重要です。オリジナルのCRF、データ定義書、生データセットを綿密に分析し、CDISC標準のドメインや変数にどう変換するかを一つ一つ検討します。特に、欠損値の扱いや、標準化された変数への変換ルール（例：単位変換、テキストデータのコード化）を明確にし、Define-XMLに正確に反映させることで、後々の手戻りやエラーを最小限に抑えられます。\n\n### 質問4: Define-XMLの作成で最も重要なことは何ですか？\n**回答:** Define-XMLは、提出されたデータセットの「辞書」であり、その正確性と完全性が極めて重要です。SDTM/ADaMの変数定義（データ型、長さ、ラベル、CDISC CTなど）、コードリスト、そして派生ロジックが、実際のデータセットと完全に一致していることが最も重要です。また、すべての外部参照ファイル（例：PDF形式の派生ロジック記述、SASフォーマットファイル）へのパスが正確であることも不可欠です。Pinnacle 21などのツールでバリデーションを徹底し、整合性を繰り返し確認しましょう。\n\n## CDISC実務に役立つリソース\n\nこの記事の内容をさらに深めるために、以下のリソースが役立ちます。\n\n- **[Amazon CDISC書籍](https://www.amazon.co.jp?tag=musclelove07-22)** - CDISC・臨床データ標準の参考書\n- **[Udemy SAS講座](https://www.udemy.com)** - 動画で学ぶCDISC実装\n- **[楽天 医薬品開発書籍](https://www.rakuten.co.jp)** - 製薬・臨床開発の参考書\n\n*上記リンクからご利用いただくと、サイト運営の支援になります。*\n\n\n## まとめ\n医薬品の承認審査における臨床データ提出は、CDISC標準への準拠と、提出先の規制当局（FDA、PMDA、EMA）の最新技術要件を理解することが成功の鍵です。SASプログラマーとしては、SDTMやADaMといった標準化されたデータセットの正確な作成に加え、そのメタデータを記述するDefine-XMLの品質管理が非常に重要になります。\n\n海外の最新動向を常にキャッチアップし、PMDAの固有要件も踏まえつつ、Pinnacle 21などのバリデーションツールを最大限に活用することで、高品質なデータを効率的に作成・提出することが可能です。これにより、承認審査プロセスが円滑に進み、新しい治療法を待ち望む患者さんへ、一日も早く医薬品を届けることに貢献できます。グローバルな視点と日本の実務を結びつけるCDISC Standards Navigatorとして、今後も皆さんの実務に役立つ情報をお届けしていきます。\n\n---",
  "meta_description": "臨床データの承認審査における規制当局（FDA, PMDA, EMA）への提出要件を解説。最新のCDISC標準とeCTD、SASプログラミング実務での注意点をベテランSASプログラマーが徹底解説します。",
  "tags": [
    "CDISC",
    "承認審査",
    "臨床データ提出",
    "規制当局",
    "FDA CDISC 提出",
    "PMDA 電子データ",
    "SASプログラミング",
    "SDTM",
    "ADaM",
    "Define-XML",
    "eCTD"
  ],
  "slug": "approval-review-clinical-data-submission-regulatory-authorities-latest-strategy",
  "faq": [
    {
      "question": "CDISC標準の最新バージョンはどれを使えばよいですか？",
      "answer": "規制当局の最新の技術要件ガイド（例：FDA SDTCGやPMDAのeCTD Application Technical Conformance Guide）で指定されているCDISC標準のバージョンを使用するのが原則です。通常、最新版またはその直前の版が推奨されますが、古いバージョンでの提出が許可される場合もあります。治験開始時や申請準備開始時に、提出先の規制当局に確認し、プロジェクト内で使用バージョンを統一することが重要です。"
    },
    {
      "question": "PMDAへの提出でもPinnacle 21は必須ですか？",
      "answer": "PMDA自体は特定のバリデーションツールを必須とはしていませんが、提出データの品質を担保するためのバリデーションは強く推奨されており、その結果をバリデーションレポートとして提出することも推奨されています。Pinnacle 21はグローバルスタンダードとしてFDAやEMAでも広く利用されており、エラー検出能力が高いため、承認審査をスムーズに進める上で非常に有効です。日本の製薬企業やCROでも、Pinnacle 21を事実上の標準ツールとして導入しているケースがほとんどです。"
    },
    {
      "question": "レガシーデータをCDISC変換する際の注意点は？",
      "answer": "レガシーデータ（非CDISC形式）をSDTMに変換する際は、オリジナルのデータ定義を完全に理解し、詳細なマッピングガイドラインを事前に作成することが極めて重要です。オリジナルのCRF、データ定義書、生データセットを綿密に分析し、CDISC標準のドメインや変数にどう変換するかを一つ一つ検討します。特に、欠損値の扱いや、標準化された変数への変換ルール（例：単位変換、テキストデータのコード化）を明確にし、Define-XMLに正確に反映させることで、後々の手戻りやエラーを最小限に抑えられます。"
    },
    {
      "question": "Define-XMLの作成で最も重要なことは何ですか？",
      "answer": "Define-XMLは、提出されたデータセットの「辞書」であり、その正確性と完全性が極めて重要です。SDTM/ADaMの変数定義（データ型、長さ、ラベル、CDISC CTなど）、コードリスト、そして派生ロジックが、実際のデータセットと完全に一致していることが最も重要です。また、すべての外部参照ファイル（例：PDF形式の派生ロジック記述、SASフォーマットファイル）へのパスが正確であることも不可欠です。Pinnacle 21などのツールでバリデーションを徹底し、整合性を繰り返し確認しましょう。"
    }
  ],
  "hero_emoji": "📝",
  "hero_gradient": "135deg",
  "keyword": "承認審査, 臨床データ提出, 規制当局",
  "category": "規制当局対応",
  "generated_at": "2026-04-25T01:18:40.055614",
  "has_affiliate": true,
  "affiliate_count": 3,
  "eyecatch_url": "https://images.unsplash.com/photo-1554224155-6726b3ff858f?w=1200&h=630&fit=crop&auto=format&q=80",
  "eyecatch_credit": "Photo from [Unsplash](https://unsplash.com/)"
}