{
  "title": "MIDDでがん領域の用量選択を最適化！規制当局へのデータ提出と信頼性確保の秘訣",
  "content": "# MIDDでがん領域の用量選択を最適化！規制当局へのデータ提出と信頼性確保の秘訣\n\n![MIDDでがん領域の用量選択を最適化！規制当局へのデータ提出と信頼性確保の秘訣](https://images.unsplash.com/photo-1507003211169-0a1dd7228f2d?w=1200&h=630&fit=crop&auto=format&q=80)\n\n*Photo from [Unsplash](https://unsplash.com/)*\n\n\n皆さん、こんにちは！CDISC Standards NavigatorのベテランSASプログラマーです。今回は、近年の医薬品開発で注目されている「MIDD (Model-Informed Drug Development: モデルを用いた医薬品開発)」に焦点を当て、特に**がん領域**における**用量選択**の最適化、そして**規制当局**への**データ提出**と**信頼性**確保のポイントを深掘りしていきます。**MIDD**は、臨床試験データを効率的に活用し、最適な用量設定や臨床試験デザインに貢献する強力なアプローチです。この重要なトレンドをいち早くキャッチし、日本の実務に役立てていきましょう。\n\n## この記事でわかること\n*   MIDDの基本的な概念と、がん領域での応用メリット\n*   CDISC (Clinical Data Interchange Standards Consortium) 標準がMIDDに果たす役割と、具体的なSASコード例\n*   FDA (米国食品医薬品局) やEMA (欧州医薬品庁) におけるMIDDの最新動向とデータ提出要件\n*   PMDA (医薬品医療機器総合機構) の見解と、日本での規制当局対応のポイント\n*   MIDD関連データの信頼性を高めるためのヒントと、よくあるエラーの対処法\n\n## 結論から言うと\nがん領域の用量選択においてMIDDを活用することで、効率的かつ科学的な開発が可能になります。成功の鍵は、CDISC標準に準拠した高品質なデータ準備と、FDA/PMDA双方の規制当局要件を理解した上でデータ提出を行うことです。これにより、開発期間の短縮と承認プロセスの信頼性向上に大きく貢献できます。\n\n## MIDD (Model-Informed Drug Development) とは？\nMIDDとは、数理モデルとシミュレーションを用いて、医薬品の開発戦略を情報に基づいて決定するアプローチのことです。具体的には、薬物動態 (PK: Pharmacokinetics)、薬力学 (PD: Pharmacodynamics)、疾患の進行モデル、患者アウトカムモデルなどを活用し、以下のような目的で用いられます。\n\n*   **用量選択の最適化**: どの用量が最も効果的で安全か、モデルを用いて予測します。\n*   **臨床試験デザインの効率化**: 必要な被験者数や試験期間を最適化します。\n*   **開発段階での意思決定支援**: 早期に開発中止や方向転換を判断します。\n*   **特殊集団（小児、腎機能・肝機能障害患者など）での検討**: 限られたデータで用量を推測します。\n\n### なぜがん領域でMIDDが重要なのか？\nがん領域では、治療法が多岐にわたり、患者さんの病態も複雑です。また、抗がん剤は毒性が高いため、最適な用量選択は効果と安全性の両面で極めて重要になります。MIDDを用いることで、以下のようなメリットがあります。\n\n*   **個別化医療の推進**: 患者さんの特性（遺伝子型、体重、年齢など）に応じた最適な用量を提案しやすくなります。\n*   **ドラッグリポジショニング**: 既存薬のがん領域での新たな応用可能性を探る際に、効率的な評価が可能です。\n*   **開発効率の向上**: 探索的臨床試験のデータから、より効果的な後期臨床試験のデザインを導き出せます。\n\n規制当局もMIDDの有効性を認識しており、その活用を推奨しています。特に、希少がんや難治性疾患においては、限られたデータから最大限の情報を引き出すためにMIDDが大きな期待を寄せられています。\n\n## 実務での使い方・実装手順：がん領域の用量選択におけるデータ活用\nMIDDを実務で活用するには、高品質なデータ準備が不可欠です。CDISC標準に準拠したデータは、モデリング解析の基盤となります。\n\n### ステップ1: CDISC標準に準拠したデータ収集と標準化\nがん領域の臨床試験では、様々なデータ（患者背景、安全性、有効性、PK/PD、バイオマーカーなど）が収集されます。これらをSDTM (Study Data Tabulation Model: 臨床試験データ提出のための標準データ構造) およびADaM (Analysis Data Model: 解析用データセットの標準構造) に従って標準化することが第一歩です。\n\n**特に重要なドメイン**\n*   **PC (Pharmacokinetics Concentrations)**: 血中濃度データなど、薬物動態解析の生データが含まれます。\n*   **PP (Pharmacokinetics Parameters)**: PKパラメータ（AUC, Cmaxなど）が含まれます。\n*   **DS (Disposition)**: 投与に関する情報が含まれます。\n*   **EX (Exposure)**: 被験者の薬剤曝露状況が含まれます。\n*   **TR (Tumor Response)**: がん領域特有の腫瘍評価（RECIST基準など）データが含まれます。\n\nこれらのSDTMドメインから、ADaMの原則に基づき、モデリングに適したデータセットを作成します。例えば、PK/PDモデルを構築する場合、PCドメインの血中濃度データと、TRドメインの腫瘍縮小率データを結合し、時間の経過とともに両者の関係を解析できるように整形します。\n\n### ステップ2: モデリング用データセットの作成（SASコード例）\nSDTMからモデリングツール（例：NONMEM, Phoenix WinNonlinなど）で使用可能な形式にデータを加工します。ここでは、PKデータと用量情報を組み合わせたADaM-likeデータセットを作成する例を示します。\n\n```sas\n/* SDTM PCドメイン（血中濃度）から必要な情報を抽出・整形 */\nDATA ADPC_MIDD_RAW;\n    SET SDTM.PC; /* CDISC SDTM PCドメインを想定 */\n    WHERE PCTESTCD IN ('CONC') AND PCSTAT IS NULL AND PCTPTNUM IS NOT NULL; /* 血中濃度データのみ、有効なデータ */\n    \n    /* 不要な変数を削除し、モデリングで使いやすい名前にリネーム */\n    RENAME USUBJID=SUBJID\n           PCORRES=DV /* Dependent Variable: 血中濃度 */\n           PCDTC=DTC /* 日付時刻 */\n           PCELTM=TIME; /* 投与からの経過時間 */\n\n    KEEP SUBJID DTC TIME DV PCLLOQ;\n\n    LABEL SUBJID = \"Subject Identifier\"\n          DV     = \"Observed Concentration (ng/mL)\"\n          TIME   = \"Time After Dose (hours)\"\n          PCLLOQ = \"Lower Limit of Quantitation\";\nRUN;\n\n/* SDTM EXドメイン（曝露/投与情報）から必要な情報を抽出・整形 */\nDATA ADEX_MIDD_RAW;\n    SET SDTM.EX; /* CDISC SDTM EXドメインを想定 */\n    WHERE EXTRT IS NOT NULL AND EXDOSE IS NOT NULL;\n\n    RENAME USUBJID=SUBJID\n           EXSTDTC=STDTC /* 投与開始日時 */\n           EXENDTC=ENDTC /* 投与終了日時 */\n           EXDOSE=DOSE;\n\n    KEEP SUBJID STDTC ENDTC DOSE;\n\n    LABEL SUBJID = \"Subject Identifier\"\n          STDTC  = \"Start Date of Exposure\"\n          ENDTC  = \"End Date of Exposure\"\n          DOSE   = \"Dose Administered (mg)\";\nRUN;\n\n/* 血中濃度と投与情報を結合してモデリング用データセットを作成 */\nDATA AD_PK_MODELING;\n    MERGE ADPC_MIDD_RAW (IN=PC) ADEX_MIDD_RAW (IN=EX);\n    BY SUBJID;\n\n    IF PC AND EX; /* 両方のデータが存在する場合のみ処理 */\n\n    /* 血中濃度測定日時と投与開始日時の差から、投与からの相対時間を計算 */\n    IF DTC IS NOT NULL AND STDTC IS NOT NULL THEN DO;\n        TIME_FROM_DOSE_START = INTNX('HOUR', STDTC, INTCK('HOUR', STDTC, DTC));\n    END;\n    ELSE TIME_FROM_DOSE_START = TIME; /* 既に相対時間がある場合はそれを使用 */\n\n    /* NONMEMなどのモデリングツールで一般的なEVID/AMT変数の設定例 */\n    IF TIME_FROM_DOSE_START = 0 THEN DO;\n        EVID = 1; /* Dosing event */\n        AMT  = DOSE; /* 投与量 */\n        DV   = .; /* 投与時点の濃度は欠損 */\n    END;\n    ELSE DO;\n        EVID = 0; /* Observed event */\n        AMT  = 0; /* 観察イベントでは投与量なし */\n    END;\n\n    LABEL TIME_FROM_DOSE_START = \"Time from First Dose (hours)\"\n          EVID = \"Event ID (0=Observation, 1=Dose)\"\n          AMT  = \"Amount Dosed (mg)\";\n\n    KEEP SUBJID TIME_FROM_DOSE_START DV AMT EVID PCLLOQ;\nRUN;\n\nPROC SORT DATA=AD_PK_MODELING; BY SUBJID TIME_FROM_DOSE_START;\nRUN;\n```\n\n**注意点:** 上記はあくまで概念的なSASコード例です。実際のモデリングデータセット作成では、より詳細な投与スケジュール、共変量（年齢、体重、肝機能など）、複数の採血時点、そして複雑なPK/PD関係を考慮する必要があります。また、Lower Limit of Quantitation (LLOQ: 定量下限) 以下データや、アウトライアー（外れ値）の処理も重要になります。\n\n### ステップ3: モデリングとシミュレーション\n作成したデータセットを用いて、PK/PDモデルを構築し、様々なシナリオでの用量選択シミュレーションを行います。がん領域では、腫瘍の縮小率や無増悪生存期間 (PFS: Progression-Free Survival) などのエンドポイントと、薬物曝露量の関係をモデル化することが一般的です。\n\n### ステップ4: 用量選択と規制当局への提出\nシミュレーション結果に基づき、最適な用量と投与レジメンを決定します。この過程で得られたMIDDの成果は、新薬申請 (NDA/BLA) における薬物動態/薬力学のセクションで、主要な根拠データとして規制当局に提出されます。\n\n## 海外の最新動向：FDA/EMAのMIDD推進とデータ提出要件\n海外の主要な規制当局は、MIDDの医薬品開発における重要性を高く評価し、その活用を積極的に推奨しています。\n\n### FDA (米国食品医薬品局)\nFDAはMIDDの活用を強く推奨しており、特に新しい医薬品の開発を加速させるツールとして位置づけています。\n\n*   **MIDD Guidance (2018年)**: 「Model-Informed Drug Development: A New Framework for FDA Engagement」を発行し、MIDDの適用範囲とFDAとの協議プロセスを明確にしました。\n*   **MIDD Paired Meeting Program**: 2020年から開始されたプログラムで、スポンサーはMIDDに関する計画や結果について、臨床開発チームとモデリング＆シミュレーションの専門家からなるFDAのチームと直接協議できます。これにより、開発早期からFDAの意見を取り入れ、規制上の不確実性を低減することが可能になります。\n    *   出典: [FDA Guidance for Industry: Model-Informed Drug Development](https://www.fda.gov/media/110959/download)\n    *   出典: [FDA Model-Informed Drug Development Paired Meeting Program](https://www.fda.gov/drugs/development-approval-process-drugs/model-informed-drug-development-paired-meeting-program)\n\n### EMA (欧州医薬品庁)\nEMAもまた、医薬品評価においてMIDDを積極的に活用しています。特に希少疾患や小児薬の開発においては、限られたデータからの意思決定を支援するツールとしてその価値を認めています。\n\n*   **Qualification of Novel Methodologies for Drug Development (Q-MIP)**: EMAは、新しいモデリング＆シミュレーション手法の「Qualification Opinion（評価意見）」を提供しており、開発者が特定の目的で新しい方法論を使用する際の科学的・規制上の確実性を高めています。\n    *   出典: [EMA: Qualification of novel methodologies for drug development](https://www.ema.europa.eu/en/human-medicines/research-development/scientific-guidelines/qualification-novel-methodologies-drug-development)\n\n### CDISCデータ提出と規制当局\nFDA、EMAともに、臨床試験データの電子提出においてCDISC標準 (SDTM, ADaM, Define-XML) の使用を義務付けています。特にFDAは「Study Data Technical Conformance Guide (TCG)」で詳細な要件を示しており、これに準拠しないデータは審査対象とみなされない可能性があります。\n\nMIDD解析の信頼性は、提出されるCDISCデータの品質に直結します。正確に標準化されたデータは、モデリング解析の再現性を高め、規制当局による審査をスムーズに進める上で不可欠です。\n\n## 日本での対応ポイント：PMDAの視点と国内実務\nPMDAもMIDDの重要性を認識しており、新薬審査におけるモデリング＆シミュレーションの活用事例は増加傾向にあります。ただし、FDAほど明確なガイダンスはまだ少ない状況です。\n\n### PMDAのMIDDへの姿勢\nPMDAは、ファーマコメトリクス（薬物速度論・薬力学と統計学を組み合わせた解析）やモデリング＆シミュレーションが医薬品開発の効率化と科学的根拠の強化に貢献することを認識しています。特に、開発の早期段階での用量選択や臨床試験デザインの最適化、日本人集団への外挿性評価などにおいて、その価値を評価しています。\n\n**FDAとPMDAの電子データ提出要件の比較**\n以下の表で、FDAとPMDAの電子データ提出に関する主要な要件を比較します。\n\n| 項目                 | FDA (米国)                                                              | PMDA (日本)                                                               |\n| :------------------- | :---------------------------------------------------------------------- | :------------------------------------------------------------------------ |\n| **データ標準**         | SDTM, ADaM, Define-XMLが必須                                            | SDTM, ADaM, Define-XMLが推奨・実質必須化                                 |\n| **提出形式**           | eCTD (electronic Common Technical Document) での提出を義務付け          | eCTDでの提出を推奨・実質必須化                                            |\n| **バリデーション**     | Study Data Technical Conformance Guide (TCG) に基づく厳格なチェック      | CDISC標準への準拠を確認。Pinnacle 21等のツール使用を推奨                  |\n| **解析プログラム**     | 提出を推奨 (Sponsor’s Analysis Datasets and Related Documentation)       | 提出を推奨 (解析データセット、解析プログラム、ログファイル等)             |\n| **MIDDに関するガイダンス** | 専用のガイダンス (MIDD Guidance) と協議プログラム (Paired Meeting Program) | 具体的なMIDD専用ガイダンスはなし。ファーマコメトリクス部会等で個別協議 |\n| **日本の実務へのアドバイス** |                                                                         |                                                                           |\n\n### 日本の製薬企業・CROが注意すべき点\n1.  **早期からのMIDD戦略の構築**: FDAのPaired Meeting Programのように、開発早期からPMDAとMIDDに関する戦略を協議できる機会はまだ少ないですが、PMDAの審査官はMIDDの重要性を理解しています。開発計画の段階で、MIDDの活用計画を明確にし、データ提出時にその成果を説得力のある形で提示できるよう準備することが重要です。\n2.  **CDISCデータの品質確保**: PMDAへの電子データ提出においても、CDISC標準に準拠した高品質なデータは必須です。特にMIDD解析に使用するPK/PD関連のデータは、その**信頼性**が解析結果に直結するため、厳格な品質管理とバリデーションが求められます。\n3.  **Define-XMLの正確性**: MIDDで使用する解析データセットだけでなく、その元となるSDTMおよび作成したADaMデータセットのDefine-XML (試験データセットのメタデータ定義) は、規制当局がデータを理解し、再解析するために非常に重要です。変数定義、Codelist、派生元の説明などを正確に記述しましょう。\n4.  **グローバル開発での連携**: グローバル開発では、FDAとPMDA双方の要件を満たすデータパッケージを準備する必要があります。特に、FDAのTCGとPMDAの要件の差異を理解し、一貫性のあるデータ提出戦略を立てることが求められます。\n\n## よくあるエラーと対処法：MIDD関連データの信頼性確保\nMIDD解析の基盤となるデータの信頼性が低いと、どんなに優れたモデルを構築しても、その結果は意味をなしません。CDISCデータ提出におけるよくあるエラーと、その対処法を見ていきましょう。\n\n### 1. PK/PDデータの単位不一致や欠損\n*   **エラー例**: PCORRESU (結果/単位) とPCORRES (結果) の単位が一致しない、または、単位が定義されていない。PK測定時刻 (PCELTM/PCTPTNUM) に欠損がある、あるいは不正確な値が含まれる。\n*   **対処法**: SDTM IG (Implementation Guide: 実装ガイド) およびCDISC CT (Controlled Terminology: 統制用語集) に従い、正確な単位と計測時点を記録します。データ入力時のバリデーションを徹底し、臨床サイトでのデータ収集精度を高めることが重要です。SASプログラムでデータを整形する際に、単位の整合性をチェックするルーチンを組み込むことも有効です。\n\n### 2. Define-XMLと実際のデータの不一致\n*   **エラー例**: Define-XMLで定義された変数の型、ラベル、Codelistが、実際のSDTM/ADaMデータセットと異なる。または、MIDDで追加した派生変数について、Define-XMLでの説明（Method、Sourceなど）が不十分である。\n*   **対処法**: Pinnacle 21などのバリデーションツールで、Define-XMLとデータセット間の整合性を常にチェックします。特に、MIDD解析のために作成したADaMデータセットや、SDTMから追加された派生変数については、詳細な derivation rule (導出ルール) をDefine-XMLに記載し、透明性を確保することが**信頼性**向上に繋がります。\n\n### 3. バリデーションツール (Pinnacle 21など) での警告・エラー\n*   **エラー例**: PK/PD関連ドメインでPinnacle 21の警告やエラーが多発する（例: `SD1046: Missing required variable PCSPID for PC.PCSEQ`, `SD0006: Missing required variable PC.PCORRES`）。\n*   **対処法**: これらのエラーは、CDISC IGへの準拠が不十分であることを示唆しています。エラーメッセージを丁寧に読み解き、IGに沿ってデータセットを修正します。特にPK/PDデータは複雑なため、関連する変数（PCSEQ, PCGRPID, PCTPTREFなど）が正しく定義されているかを確認しましょう。Pinnacle 21のコミュニティやCDISCの資料を参考に、適切なマッピングを心がけることが重要です。\n\n## よくある質問（FAQ）\n\n### Q1: MIDDのがん領域における最大のメリットは何ですか？\n**A1**: がん領域では、患者さんの状態が多様で、治療選択肢も多岐にわたります。MIDDを活用することで、限られた臨床データから最適な用量や治療レジメンを、より科学的根拠に基づいて選択できるようになります。これにより、個別化医療の推進や、開発の効率化、そして患者さんへの負担軽減に大きく貢献できる点が最大のメリットです。\n\n### Q2: MIDDでデータ提出時に特に注意すべき点は何ですか？\n**A2**: 提出データの**信頼性**確保が最も重要です。MIDD解析の基盤となるCDISC標準データ（SDTM, ADaM）の品質を徹底し、Define-XMLで解析データセットの導出過程を透明性高く記述することが求められます。FDA/PMDAのStudy Data Technical Conformance Guideや電子データ提出要件に沿って、一貫性のあるデータパッケージを準備しましょう。\n\n### Q3: PMDAはMIDDをどの程度重視しているのでしょうか？\n**A3**: PMDAは、ファーマコメトリクスやモデリング＆シミュレーションの医薬品開発への貢献を高く評価しており、審査においてその活用事例が増加しています。FDAのような専用のMIDDガイダンスや協議プログラムはまだありませんが、個別相談を通じて積極的に意見交換を行うことは可能です。日本の実務においては、CDISC準拠の高品質なデータ提出を通じて、MIDDの成果を明確に提示することが重要となります。\n\n### Q4: CDISCデータとMIDDはどのように関連していますか？\n**A4**: CDISC標準はMIDD解析の「共通言語」であり、その基盤となります。SDTMやADaMに準拠したデータは、様々なモデリングツールで利用しやすく、解析の再現性や透明性を高めます。高品質なCDISCデータなくして、**信頼性**の高いMIDD解析は実現できません。\n\n### Q5: がん領域の用量選択でMIDDを使うと、開発期間は短縮されますか？\n**A5**: はい、適切に活用されれば、開発期間の短縮に繋がる可能性があります。MIDDは、臨床試験の早期段階で最適な用量や試験デザインを決定するための強力なツールとなり、不必要な試験フェーズの削減や、後期臨床試験の成功確率向上に寄与します。これにより、全体的な開発期間とコストの削減が期待できます。\n\n## CDISC実務に役立つリソース\n\nこの記事の内容をさらに深めるために、以下のリソースが役立ちます。\n\n- **[Amazon CDISC書籍](https://www.amazon.co.jp?tag=musclelove07-22)** - CDISC・臨床データ標準の参考書\n- **[Udemy SAS講座](https://www.udemy.com)** - 動画で学ぶCDISC実装\n- **[楽天 医薬品開発書籍](https://www.rakuten.co.jp)** - 製薬・臨床開発の参考書\n\n*上記リンクからご利用いただくと、サイト運営の支援になります。*\n\n\n## まとめ\nMIDDは、がん領域の医薬品開発における**用量選択**を最適化し、効率と科学的根拠を両立させるための非常に強力なアプローチです。海外の**規制当局**、特にFDAはMIDDの活用を積極的に推奨しており、日本においてもその重要性は高まっています。**データ提出**にあたっては、CDISC標準に準拠した高品質なデータ準備と、Define-XMLによる透明性の確保が不可欠であり、これがMIDD解析結果の**信頼性**を担保します。私たちSASプログラマーは、CDISCデータ作成の専門家として、このMIDDの波に乗り、医薬品開発の未来を切り開く重要な役割を担っています。常に最新の規制動向をキャッチアップし、日本の実務に貢献していきましょう。\n",
  "meta_description": "がん領域の用量選択におけるMIDDの規制当局対応を解説。FDA/PMDAへのCDISCデータ提出の信頼性を高めるための実務ポイント、最新動向、SASコード例を紹介します。",
  "tags": [
    "MIDD",
    "がん領域",
    "用量選択",
    "規制当局",
    "データ提出",
    "信頼性",
    "CDISC",
    "SDTM",
    "ADaM",
    "FDA",
    "PMDA",
    "SAS",
    "eCTD"
  ],
  "slug": "midd-cancer-dose-selection-regulatory-submission-reliability",
  "faq": [
    {
      "question": "MIDDのがん領域における最大のメリットは何ですか？",
      "answer": "がん領域では、患者さんの状態が多様で、治療選択肢も多岐にわたります。MIDDを活用することで、限られた臨床データから最適な用量や治療レジメンを、より科学的根拠に基づいて選択できるようになります。これにより、個別化医療の推進や、開発の効率化、そして患者さんへの負担軽減に大きく貢献できる点が最大のメリットです。"
    },
    {
      "question": "MIDDでデータ提出時に特に注意すべき点は何ですか？",
      "answer": "提出データの信頼性確保が最も重要です。MIDD解析の基盤となるCDISC標準データ（SDTM, ADaM）の品質を徹底し、Define-XMLで解析データセットの導出過程を透明性高く記述することが求められます。FDA/PMDAのStudy Data Technical Conformance Guideや電子データ提出要件に沿って、一貫性のあるデータパッケージを準備しましょう。"
    },
    {
      "question": "PMDAはMIDDをどの程度重視しているのでしょうか？",
      "answer": "PMDAは、ファーマコメトリクスやモデリング＆シミュレーションの医薬品開発への貢献を高く評価しており、審査においてその活用事例が増加しています。FDAのような専用のMIDDガイダンスや協議プログラムはまだありませんが、個別相談を通じて積極的に意見交換を行うことは可能です。日本の実務においては、CDISC準拠の高品質なデータ提出を通じて、MIDDの成果を明確に提示することが重要となります。"
    },
    {
      "question": "CDISCデータとMIDDはどのように関連していますか？",
      "answer": "CDISC標準はMIDD解析の「共通言語」であり、その基盤となります。SDTMやADaMに準拠したデータは、様々なモデリングツールで利用しやすく、解析の再現性や透明性を高めます。高品質なCDISCデータなくして、信頼性の高いMIDD解析は実現できません。"
    },
    {
      "question": "がん領域の用量選択でMIDDを使うと、開発期間は短縮されますか？",
      "answer": "はい、適切に活用されれば、開発期間の短縮に繋がる可能性があります。MIDDは、臨床試験の早期段階で最適な用量や試験デザインを決定するための強力なツールとなり、不必要な試験フェーズの削減や、後期臨床試験の成功確率向上に寄与します。これにより、全体的な開発期間とコストの削減が期待できます。"
    }
  ],
  "hero_emoji": "📝",
  "hero_gradient": "135deg",
  "keyword": "MIDD, がん領域, 用量選択, 規制当局, データ提出, 信頼性",
  "category": "規制当局対応",
  "generated_at": "2026-04-19T05:29:00.029709",
  "has_affiliate": true,
  "affiliate_count": 3,
  "eyecatch_url": "https://images.unsplash.com/photo-1507003211169-0a1dd7228f2d?w=1200&h=630&fit=crop&auto=format&q=80",
  "eyecatch_credit": "Photo from [Unsplash](https://unsplash.com/)"
}