{
  "title": "CDISCで加速！PMDA/FDA承認審査への臨床データ提出ガイド",
  "content": "# CDISC Standards Navigator\n\n![CDISCで加速！PMDA/FDA承認審査への臨床データ提出ガイド](https://images.unsplash.com/photo-1454165804606-c3d57bc86b40?w=1200&h=630&fit=crop&auto=format&q=80)\n\n*Photo from [Unsplash](https://unsplash.com/)*\n\n\n## 規制当局対応：CDISCで加速！PMDA/FDA承認審査への臨床データ提出ガイド\n\n## この記事でわかること\n\n*   PMDA（医薬品医療機器総合機構）とFDA（米国食品医薬品局）へのCDISC（Clinical Data Interchange Standards Consortium）データ提出要件の全体像がわかります。\n*   eCTD（電子共通技術文書）やStudy Data Technical Conformance Guideの重要性と具体的な適用方法を理解できます。\n*   海外規制当局（FDA/EMA）の最新動向と、それに対する日本での実務的な対応ポイントを把握できます。\n*   SASコード例を含む、SDTM（Study Data Tabulation Model）やADaM（Analysis Data Model）データセット作成、Define-XML生成の実践手順を習得できます。\n*   データ提出時に頻発するバリデーションエラーの種類とその効果的な対処法を学べます。\n\n## 結論から言うと\n\nPMDA・FDAへの臨床データ提出には、CDISC標準（SDTM、ADaM、Define-XML、Controlled Terminology）への完全準拠が不可欠です。各当局が発行するStudy Data Technical Conformance Guideを熟読し、eCTDによる電子的提出を正確に行うことが、承認審査をスムーズに進めるための鍵となります。最新の規制動向を常に把握し、バリデーションツールを活用した高品質なデータセット作成と提出は、プロジェクト成功への最短ルートです。\n\n## 臨床データ提出と承認審査とは？\n\n治験によって得られた臨床データは、新薬や医療機器の有効性・安全性を規制当局（例えば日本のPMDAや米国のFDA）に証明するために提出されます。この一連のプロセスが「臨床データ提出」であり、その後の当局による評価が「承認審査」です。データ提出の際、バラバラな形式では効率的な審査が難しいため、世界共通のデータ標準であるCDISCが採用されています。\n\nCDISC標準は、臨床試験データを構造化し、交換可能にするための国際的な基準です。特に重要なのは以下の4つです。\n\n*   **SDTM（Study Data Tabulation Model）**: 症例報告書（CRF）から収集された生データを、標準化された変数と構造でテーブル形式に整理するためのモデルです。例えば、被験者の背景情報（DEMO）、有害事象（AE）、併用薬（CM）などが該当します。\n*   **ADaM（Analysis Data Model）**: 統計解析のためにSDTMデータを加工し、解析結果を導き出すためのモデルです。解析用データセット、解析対象集団の定義、主要評価項目・副次評価項目に関連する変数が含まれます。\n*   **Define-XML**: SDTMやADaMデータセットの変数定義、コードリスト、導出ロジックなどのメタデータを機械可読な形式で記述するためのファイルです。データセットの内容を当局が理解するために不可欠です。\n*   **Controlled Terminology（CT）**: SDTMやADaMで使われる変数の値（例：「性別」の「男性」「女性」）を標準化するための用語集です。データの一貫性と解釈の統一性を保証します。\n\nこれらの標準に準拠して臨床データを提出することで、承認審査の効率化、国際的な共同開発の推進、データの再利用性の向上が期待できます。\n\n## 実務での使い方・実装手順\n\nSASプログラマーとして、CDISCデータを作成する際の具体的なステップとコード例を見ていきましょう。\n\n### 1. SDTMデータセットの作成\n\n症例報告書（CRF）から収集された生データ（Raw Data）を、SDTM標準にマッピングします。例えば、被験者識別情報、性別、年齢、体重などの基本的な情報をSDTMのDEMO（Demographics）ドメインに変換する例です。\n\n```sas\n/* 生データ例 */\ndata raw_demographics;\n    input subjectid $ siteid $ gender $ birthdt :yymmdd10. weightkg heightcm;\n    format birthdt yymmdd10.;\n    datalines;\n    001-001 SITE01 M 1985-05-15 75.3 178\n    001-002 SITE01 F 1990-11-22 62.1 165\n    002-001 SITE02 F 1988-03-01 58.0 160\n    ;\nrun;\n\n/* SDTM.DMドメインの作成 */\ndata sdtm.dm;\n    set raw_demographics;\n    length STUDYID USUBJID SUBJID SITEID RFSTDTC RFENDTC AGE SEX AGEU CMONDOB $20 -- $400;\n    format BRTHDTC $10.; /* 誕生日をISO 8601形式で出力 */\n\n    STUDYID = 'STUDY001';\n    USUBJID = catx('-', STUDYID, siteid, subjectid); /* Unique Subject Identifier */\n    SUBJID = subjectid;\n\n    /* RFSTDTC: First Date of Study Participation - 仮に生年月日に設定 */\n    /* RFENDTC: End Date of Study Participation - 仮に試験終了日に設定 */\n    /* 実際の治験では治験薬初回投与日などが使われることが多い */\n    RFSTDTC = put(birthdt, yymmdd10.); /* YYYY-MM-DD形式に変換 */\n\n    BRTHDTC = put(birthdt, yymmdd10.); /* YYYY-MM-DD形式に変換 */\n    AGE = int((today() - birthdt)/365.25); /* 年齢計算（例） */\n    AGEU = 'YEARS';\n\n    /* 性別をControlled Terminologyにマッピング */\n    if gender = 'M' then SEX = 'M';\n    else if gender = 'F' then SEX = 'F';\n    else SEX = ''; /* 未定義の場合 */\n\n    RACE = 'WHITE'; /* 例：人種情報は生データから取得 */\n    ETHNIC = 'NOT HISPANIC OR LATINO'; /* 例：民族情報は生データから取得 */\n    ARM = 'Placebo'; /* 例：治療群 */\n    ARMCD = 'PLCBO'; /* 例：治療群コード */\n    ACTARM = 'Placebo'; /* 例：実際の治療群 */\n    ACTARMCD = 'PLCBO'; /* 例：実際の治療群コード */\n\n    WEIGHT = weightkg;\n    WEIGHTU = 'kg';\n    HEIGHT = heightcm;\n    HEIGHTU = 'cm';\n\n    label\n        STUDYID = 'Study Identifier'\n        USUBJID = 'Unique Subject Identifier'\n        SUBJID = 'Subject Identifier'\n        SITEID = 'Study Site Identifier'\n        RFSTDTC = 'Date/Time of First Study Interaction'\n        BRTHDTC = 'Date of Birth'\n        AGE = 'Age'\n        AGEU = 'Age Units'\n        SEX = 'Sex'\n        RACE = 'Race'\n        ETHNIC = 'Ethnicity'\n        ARM = 'Planned Arm'\n        ACTARM = 'Actual Arm'\n        WEIGHT = 'Weight'\n        WEIGHTU = 'Weight Units'\n        HEIGHT = 'Height'\n        HEIGHTU = 'Height Units'\n    ;\nrun;\n\n/* SDTM.VS (Vital Signs) ドメインの例 */\ndata raw_vs;\n    input subjectid $ vsdtc :yymmdd10. vstestcd $ vsstresn;\n    format vsdtc yymmdd10.;\n    datalines;\n    001-001 2023-01-10 SYSBP 120\n    001-001 2023-01-10 DIABP 80\n    001-001 2023-01-10 PULSE 72\n    001-002 2023-01-12 SYSBP 110\n    001-002 2023-01-12 DIABP 70\n    001-002 2023-01-12 PULSE 68\n    ;\nrun;\n\ndata sdtm.vs;\n    set raw_vs;\n    length STUDYID USUBJID SUBJID VSSEQ -- VSLOC $20 -- $200;\n    format VSDTC $10.;\n\n    STUDYID = 'STUDY001';\n    USUBJID = catx('-', STUDYID, 'SITE01', subjectid); /* サイトIDは仮で設定 */\n    SUBJID = subjectid;\n    DOMAIN = 'VS';\n    VSSEQ = _N_; /* Sequence Number */\n    VSDTC = put(vsdtc, yymmdd10.);\n    VSTESTCD = vstestcd;\n    if vstestcd = 'SYSBP' then VSTEST = 'Systolic Blood Pressure';\n    else if vstestcd = 'DIABP' then VSTEST = 'Diastolic Blood Pressure';\n    else if vstestcd = 'PULSE' then VSTEST = 'Pulse Rate';\n    VSORRES = put(vsstresn, 8.0); /* オリジナル結果（文字） */\n    VSORRESU = 'mmHg'; /* 単位 */\n    VSSTRESC = put(vsstresn, 8.0); /* 標準化結果（文字） */\n    VSSTRESN = vsstresn; /* 標準化結果（数値） */\n    if vstestcd in ('SYSBP', 'DIABP') then VSSTRESU = 'mmHg';\n    else if vstestcd = 'PULSE' then VSSTRESU = 'beats/min';\n\n    label\n        STUDYID = 'Study Identifier'\n        USUBJID = 'Unique Subject Identifier'\n        SUBJID = 'Subject Identifier'\n        DOMAIN = 'Domain Abbreviation'\n        VSSEQ = 'Sequence Number'\n        VSDTC = 'Date/Time of Measurement'\n        VSTESTCD = 'Vital Signs Test Code'\n        VSTEST = 'Vital Signs Test'\n        VSORRES = 'Original Result'\n        VSORRESU = 'Original Units'\n        VSSTRESC = 'Standardized Result in Character'\n        VSSTRESN = 'Standardized Result in Numeric'\n        VSSTRESU = 'Standardized Units'\n    ;\nrun;\n```\n\n### 2. ADaMデータセットの作成\n\nSDTMデータセットを基に、統計解析に必要な変数を導出し、解析対象集団を定義します。例えば、SDTMの有害事象データ（AE）から重篤な有害事象の有無を示すフラグを作成する例です。\n\n```sas\n/* SDTM.AE (Adverse Events) ドメインの例 */\ndata sdtm.ae;\n    input STUDYID $ USUBJID $ AETERM $ AESER $ AEOUT $ AEDECOD $;\n    datalines;\n    STUDY001 001-001-001 Headache N RESOLVED Headache\n    STUDY001 001-001-001 Nausea Y NOT RECOVERED Nausea\n    STUDY001 001-001-002 Rash N RESOLVED Rash\n    STUDY001 001-001-002 Dizziness N RESOLVED Dizziness\n    STUDY001 001-002-001 Vomiting Y RESOLVED Vomiting\n    ;\nrun;\n\n/* ADaM.ADAE (Analysis Dataset for Adverse Events) の作成 */\ndata adam.adae;\n    merge sdtm.dm(in=a) sdtm.ae(in=b);\n    by USUBJID;\n    if a;\n\n    length SAFFL $1 AEN01FL $1;\n\n    /* 解析対象集団フラグ (Safety Analysis Set) */\n    SAFFL = 'Y'; /* 全被験者を対象とする場合 */\n\n    /* 重篤な有害事象フラグ */\n    if AESER = 'Y' then AEN01FL = 'Y';\n    else AEN01FL = 'N';\n\n    label\n        SAFFL = 'Safety Analysis Set Flag'\n        AEN01FL = 'Any Serious Adverse Event Flag'\n    ;\nrun;\n```\n\n### 3. Define-XMLの生成とバリデーション\n\nSDTMおよびADaMデータセットが完成したら、その構造や内容を説明するDefine-XMLを作成します。多くのSASユーザーは、SASからメタデータを抽出し、専用のツール（例：Pinnacle 21 Enterprise/Community）を用いてDefine-XMLを生成します。Define-XMLはデータセットと内容が一致しているか、バリデーションツールで確認することが重要です。\n\n**Define-XMLのポイント:**\n*   各ドメイン（例：DM, AE, VS）、変数（例：USUBJID, SEX）、コードリスト（例：SEXのM/F）、導出ロジックが正確に記述されているか。\n*   SDTM IG（Implementation Guide）やADaM IGに準拠しているか。\n\n## 海外の最新動向\n\n### FDAのStudy Data Technical Conformance Guide (TCOG) 更新\n\nFDAは、電子データ提出に関する技術的な要件を定めた「Study Data Technical Conformance Guide (TCOG)」を定期的に更新しています。最新のTCOGは、CDISC標準の特定のバージョン（例：SDTM IG 3.3、ADaM IG 1.3）への準拠を求め、eCTD v3.2.2またはeCTD v4.0での提出方法を詳細に規定しています。特に、FDAはSDTMおよびADaMデータセットとともに、Define-XML、レビューワーズガイドの提出を必須としています。\n\n*   **主な更新点（例: TCOG v4.4）**\n    *   SDTM IGやADaM IGの最新バージョンへの言及。\n    *   特定のドメイン（例えば、TRIAL DESIGN関連ドメイン）の使用推奨事項の追加。\n    *   非臨床データ（SEND）提出に関するガイダンスの強化。\n    *   データバリデーションツール（Pinnacle 21 Community/Enterprise）で検出されるエラータイプとその対処法に関するアドバイス。\n\n出典: [FDA Study Data Technical Conformance Guide](https://www.fda.gov/drugs/guidance-compliance-regulatory-information/study-data-technical-conformance-guide)\n\n### EMAの電子データ提出要件とeCTD v4.0\n\n欧州医薬品庁（EMA）も、電子データ提出を推進しており、eCTD v4.0への移行を進めています。FDAと同様にCDISC標準の活用を推奨していますが、現時点ではFDAほど詳細な技術的ガイドラインを公開していません。しかし、将来的にFDAと同様の厳格な要件が導入される可能性が高いため、最新の動向に注意が必要です。\n\n*   **EMAの取り組み**\n    *   eCTD v4.0は、モジュール3（品質）とモジュール4/5（非臨床/臨床）の提出方法を大きく変更し、より構造化されたデータ提出を目指しています。これは、AIを活用した審査の効率化に繋がると期待されています。\n    *   臨床試験データの提出に関しては、まだpilot project段階ですが、将来的にはCDISC SDTM/ADaMデータを必須とする方向で検討が進められています。\n\n出典: [EMA eSubmission](https://www.ema.europa.eu/en/human-regulatory/research-development/electronic-submission)\n\n### CDISC標準の継続的な進化\n\nCDISCは、SDTM IG、ADaM IG、Controlled Terminologyなどを定期的に更新し、新たな治験デザインやデータタイプに対応しています。例えば、医療機器データ（Medical Devices）やリアルワールドデータ（RWD）への対応など、幅広い分野での標準化が進められています。これらの更新を常に把握し、自社のCDISCデータ作成プロセスに反映させることが重要です。\n\n出典: [CDISC Standards](https://www.cdisc.org/standards)\n\n## 日本での対応ポイント\n\nPMDAは、海外の規制当局に比べると、電子データ提出に関する詳細な技術的ガイドラインの公開が遅れていましたが、近年は積極的な取り組みを進めています。2016年4月以降、PMDAは、新医薬品の承認申請において、治験実施計画書、試験報告書、SDTM/ADaMデータセット、Define-XML、およびレビューワーズガイドの電子提出を必須としています。\n\n### PMDAの電子データ提出要件の概要\n\n*   **ガイドライン**: 「新医薬品の承認申請に係る電子データ提出について」（平成28年2月10日薬生審査発0210第1号）。\n*   **必須提出物**: 臨床試験報告書（モジュール5）、SDTM/ADaMデータセット、Define-XML、電子レビューワーズガイド。\n*   **CDISC標準のバージョン**: 基本的にFDAが推奨するCDISC IGバージョンに準拠することが求められます。PMDAが特定のバージョンを強く指定することは少ないですが、最新かつ安定したバージョンを使用することが推奨されます。\n*   **言語**: FDAが英語での提出を必須とするのに対し、PMDAは日本語または英語での提出を認めています。しかし、国際共同治験の場合、英語での提出が一般的です。\n\n### FDAとPMDAの要件比較表\n\n| 要件/項目          | FDA (米国)                                    | PMDA (日本)                                       |\n| :----------------- | :-------------------------------------------- | :------------------------------------------------ | \n| **対象**           | 新薬、バイオ医薬品、医療機器（一部）          | 新医薬品、バイオ医薬品                            |\n| **必須データ標準** | SDTM, ADaM, Define-XML, CT (SEND, BRIDGも推奨) | SDTM, ADaM, Define-XML, CT                        |\n| **TCOG/ガイドライン**| Study Data Technical Conformance Guide (TCOG) | 「新医薬品の承認申請に係る電子データ提出について」 |\n| **提出形式**       | eCTD v3.2.2 または eCTD v4.0                  | eCTD v3.2.2 (v4.0移行予定)                        |\n| **推奨IGバージョン**| TCOGで指定される最新バージョン                | FDA推奨バージョンに準拠                          |\n| **言語**           | 英語のみ                                      | 日本語または英語                                  |\\n| **レビューワーズガイド**| 必須 (e.g., SDRG, ADRG)                       | 必須 (電子レビューワーズガイド)                  |\n\n### 国内実務へのアドバイス\n\n日本の製薬企業やCROがPMDAへの電子データ提出を行う際、以下の点に注意すると良いでしょう。\n\n1.  **早期からのCDISC準拠計画**: 治験計画段階からCDISC標準への準拠を織り込み、データ収集項目やCRFデザインを標準に合わせて最適化することが、手戻りを減らし効率的なデータ作成に繋がります。\n2.  **品質管理の徹底**: データバリデーションツール（例: Pinnacle 21）を積極的に活用し、提出前にデータ品質を徹底的に確認します。PMDAもバリデーションツールを用いて提出データを審査しています。\n3.  **レビューワーズガイドの充実**: Define-XMLだけでは説明しきれない複雑な導出ロジックやデータ構造については、レビューワーズガイドに詳細に記載し、審査担当者がデータ内容をスムーズに理解できるよう努めます。\n4.  **国際共同治験における戦略**: 国際共同治験では、FDAとPMDA双方の要件を満たす必要があります。特に言語の問題（英語 vs. 日本語）は事前に協議し、統一した提出戦略を立てることが重要です。一般的には、英語で作成し、必要に応じて日本語訳を添付する形式が採用されます。\n\n## よくあるエラーと対処法\n\nCDISCデータ提出において、バリデーションツール（Pinnacle 21など）で頻繁に検出されるエラーとその対処法を知っておくことは非常に重要です。\n\n### よくあるバリデーションエラー\n\n1.  **Controlled Terminology (CT) 違反**: 変数の値がCDISC Controlled Terminologyに規定された値と一致しない場合に発生します。\n    *   **例**: SEX変数の値が'Male', 'Female'ではなく'M', 'F'と記述されている（CDISC CTでは'M'/'F'が正しい場合とそうでない場合がある）。\n    *   **対処法**: 最新のCDISC CTをダウンロードし、使用しているCTバージョンと照合して修正します。データ入力時の誤りを防ぐため、選択肢を限定する工夫も有効です。\n2.  **Required Variable Missing**: SDTM/ADaM IGで必須とされている変数がデータセットに含まれていない場合に発生します。\n    *   **例**: DMドメインにRFSTDTC（初回参加日）がない。\n    *   **対処法**: 各ドメインのIGを確認し、必須変数をすべて含めるようにデータセットを修正します。データ収集時に欠落している場合は、N/A (Not Applicable) や空白の扱いをレビューワーズガイドで明確にします。\n3.  **Invalid Date/Time Format**: 日付や時刻の形式がISO 8601 (YYYY-MM-DD, YYYY-MM-DDThh:mm) に準拠していない場合に発生します。\n    *   **例**: '2023/01/15' や 'Jan 15, 2023' など。\n    *   **対処法**: SASの`PUT`関数や`INPUT`関数を使い、`yymmdd10.` や `$ISO8601DT.` フォーマットで標準形式に変換します。\n    ```sas\n    /* 日付フォーマット変換例 */\n    data _null_;\n        dt = '2023/01/15';\n        iso_dt = put(input(dt, yymmdd10.), yymmdd10.); /* YYYY-MM-DD */\n        put iso_dt;\n    run;\n    ```\n4.  **Define-XMLとデータセットの不一致**: Define-XMLに記載されたメタデータ（変数名、データ型、長さ、コードリストなど）が実際のデータセットと一致しない場合に発生します。\n    *   **例**: Define-XMLでは変数が数値型とされているのに、データセットでは文字型になっている。\n    *   **対処法**: Define-XMLを生成するプロセスを見直し、データセットの最終的な状態を正確に反映させます。Pinnacle 21などのツールでDefine-XMLとデータを同時にバリデートし、不一致を特定します。\n5.  **Reviewer's Guideの記載不足/不整合**: データセットやDefine-XMLだけでは説明しきれない情報が不足している場合や、他の提出物と矛盾がある場合です。\n    *   **対処法**: 複雑な導出変数、データの例外処理、特定のドメインの利用目的などをレビューワーズガイドで明確かつ簡潔に説明します。レビューワーズガイドの内容は常に最新のデータセットと整合するように更新します。\n\n### バリデーションTips\n\n*   **早期かつ頻繁なバリデーション**: データ作成の初期段階からバリデーションツールを導入し、定期的にチェックすることで、後工程での大規模な手戻りを防ぎます。\n*   **Pinnacle 21の活用**: Pinnacle 21 Community Editionは無料で利用でき、CDISC標準やFDA/PMDAのバリデーションルールに対応しています。エラーログを詳細に確認し、修正に役立てましょう。\n*   **チーム内での標準化**: プログラマー間でコーディング規約やバリデーション手順を標準化し、一貫した品質を保ちます。\n\n## よくある質問（FAQ）\n\n### Q1: CDISCデータ提出はPMDA/FDAへの承認申請で必須ですか？\n**A1:** はい、主要な規制当局（PMDA、FDA、そして将来的にはEMAも）への新医薬品の承認申請において、CDISC標準に準拠した電子データの提出は必須となっています。これにより、効率的かつ一貫性のある審査が可能になります。\n\n### Q2: SDTMとADaMはどちらが重要ですか？\n**A2:** SDTMとADaMは両方とも重要ですが、目的が異なります。SDTMは生データを標準化して整理する「入力」側、ADaMは統計解析を行うための「出力」側と考えると良いでしょう。SDTMがなければADaMは作成できず、ADaMがなければ効率的な解析と審査は困難です。両方を高品質で作成することが求められます。\n\n### Q3: Define-XMLは何のために必要ですか？\n**A3:** Define-XMLは、SDTMおよびADaMデータセットに含まれるすべての変数、コードリスト、導出ロジックなどのメタデータを機械可読な形式で記述したファイルです。規制当局の審査官は、このDefine-XMLを参照してデータセットの内容を理解し、バリデーションを行います。Define-XMLがないと、データセットがどのように作成されたかを審査官が理解するのが非常に難しくなります。\n\n### Q4: 英語での提出は必須ですか？\n**A4:** FDAへの提出は英語が必須です。PMDAへの提出は、日本語または英語が認められています。しかし、国際共同治験の場合や、将来的な国際展開を考慮すると、英語でデータセットや関連文書を作成することが一般的であり、推奨されます。\n\n### Q5: バリデーションエラーが大量に出た場合、どうすれば良いですか？\n**A5:** まずはエラーログを上から順に確認し、頻出するエラーパターンや、根本原因となっている可能性のあるエラーから対処します。例えば、Controlled Terminologyの誤りが多数のエラーを引き起こしている場合もあります。Pinnacle 21などのツールでは、エラーの重み付け（Error, Warning, Notice）がされているので、Errorから優先的に修正に取り組みましょう。迷う場合は、CDISCのドキュメントや専門家の意見を参考にしてください。\n\n## CDISC実務に役立つリソース\n\nこの記事の内容をさらに深めるために、以下のリソースが役立ちます。\n\n- **[Amazon CDISC書籍](https://www.amazon.co.jp?tag=musclelove07-22)** - CDISC・臨床データ標準の参考書\n- **[Udemy SAS講座](https://www.udemy.com)** - 動画で学ぶCDISC実装\n- **[楽天 医薬品開発書籍](https://www.rakuten.co.jp)** - 製薬・臨床開発の参考書\n\n*上記リンクからご利用いただくと、サイト運営の支援になります。*\n\n\n## まとめ\n\nCDISC標準に準拠した臨床データ提出は、PMDAやFDAへの承認審査を成功させる上で不可欠な要素です。SDTM、ADaM、Define-XML、Controlled Terminologyの各要素を正確に理解し、最新の規制当局ガイドライン（特にFDAのTCOGやPMDAの電子データ提出に関する通知）に沿ってデータを準備することが求められます。SASプログラマーとしては、生データからCDISCデータセットへの変換、Define-XMLの作成、そしてPinnacle 21などのバリデーションツールを用いた品質確認まで、一連のプロセスを高い精度で実行するスキルが重要です。\n\nこの記事が、日本の製薬企業・CROの実務担当者の皆様が、複雑な海外規制動向を理解し、PMDA/FDAへの臨床データ提出をスムーズに進める一助となれば幸いです。常に最新情報をキャッチアップし、高品質なCDISCデータ作成を目指しましょう。`\n  \n",
  "meta_description": "PMDA・FDAへの臨床データ提出はCDISC準拠が必須。最新の規制要件、eCTD、Study Data Technical Conformance GuideをベテランSASプログラマーが解説。",
  "tags": [
    "CDISC",
    "SDTM",
    "ADaM",
    "PMDA",
    "FDA",
    "eCTD",
    "臨床データ提出",
    "承認申請",
    "規制当局",
    "データ標準"
  ],
  "slug": "cdisc-pmda-fda-data-submission-guide",
  "faq": [
    {
      "question": "CDISCデータ提出はPMDA/FDAへの承認申請で必須ですか？",
      "answer": "はい、主要な規制当局（PMDA、FDA、そして将来的にはEMAも）への新医薬品の承認申請において、CDISC標準に準拠した電子データの提出は必須となっています。これにより、効率的かつ一貫性のある審査が可能になります。"
    },
    {
      "question": "SDTMとADaMはどちらが重要ですか？",
      "answer": "SDTMとADaMは両方とも重要ですが、目的が異なります。SDTMは生データを標準化して整理する「入力」側、ADaMは統計解析を行うための「出力」側と考えると良いでしょう。SDTMがなければADaMは作成できず、ADaMがなければ効率的な解析と審査は困難です。両方を高品質で作成することが求められます。"
    },
    {
      "question": "Define-XMLは何のために必要ですか？",
      "answer": "Define-XMLは、SDTMおよびADaMデータセットに含まれるすべての変数、コードリスト、導出ロジックなどのメタデータを機械可読な形式で記述したファイルです。規制当局の審査官は、このDefine-XMLを参照してデータセットの内容を理解し、バリデーションを行います。Define-XMLがないと、データセットがどのように作成されたかを審査官が理解するのが非常に難しくなります。"
    },
    {
      "question": "英語での提出は必須ですか？",
      "answer": "FDAへの提出は英語が必須です。PMDAへの提出は、日本語または英語が認められています。しかし、国際共同治験の場合や、将来的な国際展開を考慮すると、英語でデータセットや関連文書を作成することが一般的であり、推奨されます。"
    },
    {
      "question": "バリデーションエラーが大量に出た場合、どうすれば良いですか？",
      "answer": "まずはエラーログを上から順に確認し、頻出するエラーパターンや、根本原因となっている可能性のあるエラーから対処します。例えば、Controlled Terminologyの誤りが多数のエラーを引き起こしている場合もあります。Pinnacle 21などのツールでは、エラーの重み付け（Error, Warning, Notice）がされているので、Errorから優先的に修正に取り組みましょう。迷う場合は、CDISCのドキュメントや専門家の意見を参考にしてください。"
    }
  ],
  "hero_emoji": "📝",
  "hero_gradient": "135deg",
  "keyword": "承認審査, 規制当局, 臨床データ提出, PMDA, FDA",
  "category": "規制当局対応",
  "generated_at": "2026-04-24T05:35:01.214071",
  "has_affiliate": true,
  "affiliate_count": 3,
  "eyecatch_url": "https://images.unsplash.com/photo-1454165804606-c3d57bc86b40?w=1200&h=630&fit=crop&auto=format&q=80",
  "eyecatch_credit": "Photo from [Unsplash](https://unsplash.com/)"
}