{
  "title": "承認審査と規制当局への臨床データ提出：PMDA/FDA要件完全ガイド",
  "meta_description": "承認審査に必要な臨床データ提出について、PMDAとFDAの規制当局要件を解説。最新のeCTD、CDISC標準、Study Data Technical Conformance Guideの実務対応をベテランSASプログラマーが徹底ガイドします。",
  "slug": "---pmda-fda-",
  "tags": [
    "CDISC",
    "SDTM",
    "ADaM",
    "PMDA",
    "FDA",
    "eCTD",
    "臨床データ提出",
    "規制当局",
    "承認審査",
    "SASプログラマー"
  ],
  "faq": [
    {
      "question": "CDISCデータ提出はなぜ必要なのですか？",
      "answer": "効率的な承認審査と国際的なデータ互換性を高めるためです。標準化されたデータは、審査官が迅速かつ正確にデータを評価する上で不可欠であり、医薬品開発の国際化にも対応できます。"
    },
    {
      "question": "PMDAとFDAで提出要件は大きく違いますか？",
      "answer": "基本的なCDISC標準（SDTM, ADaMなど）は共通ですが、詳細な技術要件、フォルダ構造、バリデーションレポートの取り扱い、特定のファイル名の規定などに違いがあります。各規制当局の最新の技術ガイドライン（PMDAの電子データ提出要領、FDAのSDTCG）を必ず確認してください。"
    },
    {
      "question": "SASプログラマーがCDISCを学ぶ上で何から始めればよいですか？",
      "answer": "まずはCDISCのウェブサイトで公開されているSDTMIG（SDTM Implementation Guide）を読み込み、簡単なSDTMデータセット（例: DM, AEドメイン）を作成する練習から始めることをお勧めします。次にADaMIGに進み、解析データセットの作成ロジックを学びましょう。Pinnacle 21 Community Editionでバリデーションを試すのも良い学習方法です。"
    },
    {
      "question": "Pinnacle 21のエラーは全て修正しなければなりませんか？",
      "answer": "原則として「Error」レベルのメッセージは全て修正が必須です。「Warning」や「Notice」は、正当な理由があり、かつ審査に影響がないと判断できる場合には、Justification（正当化文書）を添えて提出することも可能ですが、可能な限り修正することが望ましいとされています。"
    },
    {
      "question": "Reviewer's Guideにはどのような内容を記載すればよいですか？",
      "answer": "Reviewer's Guideは、提出データの「取扱説明書」のようなものです。試験デザインの概要、SDTM/ADaMのマッピングルール、使用したCTのバージョン、特殊なデータの扱い、Pinnacle 21のWarning/Noticeに対するJustificationなど、審査官がデータを理解し、レビューするために必要な情報を網羅的に記載する必要があります。"
    }
  ],
  "content": "# 承認審査と規制当局への臨床データ提出：PMDA/FDA要件完全ガイド\n\n![承認審査と規制当局への臨床データ提出：PMDA/FDA要件完全ガイド](https://images.unsplash.com/photo-1454165804606-c3d57bc86b40?w=1200&h=630&fit=crop&auto=format&q=80)\n\n*Photo from [Unsplash](https://unsplash.com/)*\n\n\nこんにちは、CDISC Standards NavigatorのベテランSASプログラマーです。今回は、医薬品の承認審査において避けて通れない規制当局への臨床データ提出について、PMDA（独立行政法人医薬品医療機器総合機構）とFDA（米国食品医薬品局）の要件を中心に、最新の動向と日本の実務での対応ポイントを詳しく解説していきます。\n\n## この記事でわかること\n*   PMDAおよびFDAへの臨床データ提出の基本的な要件と流れ\n*   eCTD（電子共通技術文書）とStudy Data Technical Conformance Guideの重要性\n*   CDISC（Clinical Data Interchange Standards Consortium）標準（SDTM, ADaMなど）の最新動向と実務への適用方法\n*   海外規制当局の最新トレンドと、日本の製薬企業・CRO（医薬品開発業務受託機関）が取るべき対応策\n*   臨床データ提出時に発生しやすいバリデーションエラーとその対処法\n\n## 結論から言うと\n承認審査のための臨床データ提出は、PMDAとFDAの双方でCDISC標準（SDTM, ADaM）を用いた電子データ提出が必須化されています。特にFDAはStudy Data Technical Conformance Guideに、PMDAは電子データ提出要領に沿ったデータセットとドキュメントの作成が厳しく求められます。海外の最新動向を常に把握し、バリデーションツールを最大限活用することで、円滑な承認審査を実現できるでしょう。\n\n## 承認審査における規制当局への臨床データ提出とは？\n医薬品の製造販売承認申請を行う際、安全性と有効性を裏付ける臨床試験データを規制当局に提出する必要があります。近年では、その提出方法が電子化され、CDISC標準に準拠したデータ提出が国際的なデファクトスタンダードとなっています。\n\n### なぜ電子データ提出が必要か？\n電子データ提出の主な目的は、承認審査の効率化と透明性の向上です。\n\n*   **効率化:** 審査官が迅速にデータをレビューし、解析できるため、審査期間の短縮につながります。\n*   **標準化:** CDISC標準を用いることで、世界中のどこで実施された試験データであっても、共通の形式で理解・評価が可能になります。\n*   **品質向上:** 標準化されたデータは、データの一貫性や正確性を高め、審査の質の向上に寄与します。\n\n### CDISC（Clinical Data Interchange Standards Consortium）標準の役割\nCDISCは、臨床試験データの収集から提出、アーカイブまでの一連のプロセスを標準化するための規格を開発する国際的な非営利団体です。主要な標準には以下があります。\n\n*   **SDTM（Study Data Tabulation Model）:** 症例報告書（CRF）で収集された生データを、構造化された標準形式に変換するためのモデルです。例えば、被験者の背景情報（DMドメイン）、有害事象（AEドメイン）、検査値（LBドメイン）など、様々な情報を定義された変数と形式で整理します。\n*   **ADaM（Analysis Data Model）:** SDTMデータを元に、統計解析に直接使用するための解析用データセットを作成するためのモデルです。SDTMデータに解析に必要な派生変数（例: ベースラインからの変化量）を追加したり、解析対象集団の定義（例: ITT集団、PP集団）を明確にしたりします。\n*   **Define-XML:** SDTMやADaMデータセットの変数定義、コードリスト、導出ロジックなどのメタデータ（データのデータ）を記述するXML形式のファイルです。規制当局はDefine-XMLを参照して提出されたデータを理解します。\n*   **CT（Controlled Terminology）:** 特定の変数に使用する用語（例: 性別[Male/Female]、投与経路[Oral/Intravenous]）を標準化するための用語集です。NCI Thesaurus（米国国立がん研究所のシソーラス）がその基盤となっています。\n\n### eCTD（electronic Common Technical Document）とは？\neCTDは、医薬品の承認申請に必要な全てのドキュメント（非臨床試験データ、CMC情報、臨床試験データなど）を電子的に構造化して提出するための国際的な標準です。CDISC標準に準拠した臨床データは、eCTDのモジュール4（非臨床試験の概要と報告）やモジュール5（臨床試験の概要と報告）に組み込まれて提出されます。\n\n## 実務での臨床データ提出：SDTM/ADaM作成と提出手順\nSASプログラマーとして、SDTMおよびADaMデータセットを作成し、規制当局に提出するまでの一連のステップを解説します。\n\n### ステップ1: データ収集とSDTM変換\n臨床試験で収集されたデータ（多くはEDCシステムから出力されるSASデータセットやCSVファイル）を、SDTMIG（SDTM Implementation Guide）に従ってSDTMデータセットに変換します。\n\n**例: SDTM.DM（Demographics）ドメインの作成**\n被験者の基本的な背景情報をまとめるDMドメインは、ほとんどの試験で必須です。\n\n```sas\n/* 生データ (CRF由来) から被験者ID, 性別, 生年月日などを取得 */\ndata work.raw_demog;\n    input subjectid $ sex $ brthdt $ race $;\n    datalines;\n    001 M 1985-01-15 Asian\n    002 F 1990-03-22 White\n    003 F 1988-11-01 Black\n    ;\nrun;\n\n/* SDTM.DMドメインの作成 */\ndata sdtm.dm;\n    set work.raw_demog;\n    LENGTH USUBJID $20 SUBJID $20 RFSTDTC $10 AGE N 8 SEX $7 RACE $15 ETHNIC $15 ARMCD $8 ARM $20;\n\n    STUDYID = 'ABC001'; /* 試験ID */\n    DOMAIN = 'DM';\n    USUBJID = catx('-', 'ABC001', subjectid); /* ユニーク被験者ID */\n    SUBJID = subjectid;\n\n    /* 開始日 (ここでは固定値として定義 - 実際の試験ではスクリーニング日など) */\n    RFSTDTC = '2023-01-01';\n\n    /* 性別: CT (Controlled Terminology) に従い変換 */\n    IF sex = 'M' THEN SEX = 'MALE';\n    ELSE IF sex = 'F' THEN SEX = 'FEMALE';\n    ELSE SEX = '';\n\n    /* 生年月日からAGEを算出 (ここでは簡略化) */\n    /* BRTHDTC変数も必要であれば作成 */\n    AGE = intck('YEAR', input(brthdt, yymmdd10.), input('2023-01-01', yymmdd10.)); /* 登録日時点の年齢 */\n\n    /* RACE, ETHNICはCTに従ってマッピング */\n    /* 例: raceをそのまま使用、ETHNICは試験デザインに応じて定義 */\n\n    label\n        STUDYID = 'Study Identifier'\n        DOMAIN  = 'Domain Abbreviation'\n        USUBJID = 'Unique Subject Identifier'\n        SUBJID  = 'Subject Identifier'\n        RFSTDTC = 'Date of First Study Treatment'\n        AGE     = 'Age (Years)'\n        SEX     = 'Sex'\n        RACE    = 'Race'\n        ETHNIC  = 'Ethnicity'\n        ARMCD   = 'Planned Arm Code'\n        ARM     = 'Description of Planned Arm';\nrun;\n```\n\nこの例は非常に簡略化されていますが、実際のSDTM作成では、各変数の型、長さ、ラベル、フォーマット、CTへの準拠などをSDTMIGと個別試験の仕様書（SDS Reviewer's Guideなど）に従って厳密に定義する必要があります。\n\n### ステップ2: ADaMデータセットの作成\nSDTMデータセットを基に、統計解析計画書（SAP）に従って解析用のADaMデータセットを作成します。主要なADaMデータセットには、被験者レベルの解析データセット（ADSL）と、変数主導の解析データセット（BDS）があります。\n\n**例: ADSL（Subject-Level Analysis Dataset）の作成**\n\n```sas\n/* SDTM.DMとその他のSDTMドメインから必要な情報を結合 */\ndata adam.adsl;\n    merge sdtm.dm (in=a) sdtm.ex (where=(EXDOSE>0) in=b keep=USUBJID EXSTDTC EXENDTC); /* DMと初回投与情報を結合 */\n    by USUBJID;\n    if a;\n\n    LENGTH SAFFL $1 ATTFL $1 TRT01P $20 TRT01A $20;\n\n    STUDYID = 'ABC001';\n    ADAM_ID = USUBJID; /* ADaMにおける被験者ID */\n\n    /* 安全性解析対象フラグ */\n    SAFFL = 'Y'; /* 全員安全性解析対象と仮定 */\n\n    /* 解析対象集団フラグ (例: ITT集団) */\n    ATTFL = 'Y'; /* 全員ITT解析対象と仮定 */\n\n    /* 計画投与群 (TRT01P) と実投与群 (TRT01A) */\n    /* 例: 無作為割付情報を基に設定 */\n    IF mod(input(SUBJID, 8.), 2) = 1 THEN DO;\n        TRT01P = 'Drug A';\n        TRT01A = 'Drug A';\n    END;\n    ELSE DO;\n        TRT01P = 'Placebo';\n        TRT01A = 'Placebo';\n    END;\n\n    /* その他の解析に必要な変数 (年齢層、人種、ベースライン値など) をSDTMから導出または結合 */\n\n    label\n        STUDYID = 'Study Identifier'\n        ADAM_ID = 'Unique Subject Identifier for ADaM'\n        SAFFL   = 'Safety Analysis Flag'\n        ATTFL   = 'Intent-To-Treat Analysis Flag'\n        TRT01P  = 'Planned Treatment for Period 01'\n        TRT01A  = 'Actual Treatment for Period 01';\nrun;\n```\n\nADaMデータセットは、SDTMデータセット以上に試験ごとの解析要件を反映させる必要があるため、ADaMIG（ADaM Implementation Guide）を熟読し、統計家と密に連携しながら作成することが重要です。\n\n### ステップ3: Define-XMLの作成\nSDTMおよびADaMデータセットの構造と内容を説明するDefine-XMLを作成します。これは規制当局が提出データを理解するための「地図」の役割を果たします。Pinnacle 21 CommunityやSAS Clinical Standards Toolkitなどのツールで自動生成することも可能ですが、手動での調整や追加記述が必要になることが多いです。\n\nDefine-XMLには、データセットの一覧、変数定義、各変数のコードリスト（Controlled Terminology）、計算ロジック、外部ファイルへのリンクなどが記述されます。\n\n### ステップ4: バリデーションと品質管理\n作成したCDISCデータセットとDefine-XMLがCDISC標準や規制当局の要件に準拠しているかを確認するバリデーションは、データ提出の最終段階で最も重要なプロセスの一つです。Pinnacle 21 Community/Validatorなどのツールを用いて、自動バリデーションを行います。\n\nバリデーションの結果はレポートとして出力され、エラー、警告、注意の各メッセージが表示されます。これらのメッセージを一つずつ確認し、適切に対処することが求められます。\n\n## 海外の最新動向：FDA/EMAの要件アップデートとCDISC標準\n国際的な承認審査の動向は常に変化しており、日本の実務担当者もその最新情報をキャッチアップする必要があります。\n\n### FDAのStudy Data Technical Conformance Guide (SDTCG) 更新\nFDAは定期的にStudy Data Technical Conformance Guide (SDTCG) を更新し、CDISCデータ提出に関する最新の技術要件を提示しています。このガイドは、提出すべきCDISC標準のバージョン、ファイル形式、バリデーションツールの使用方法など、非常に具体的な情報を含んでいます。\n\n*   **主な変更点:** 最新のSDTCGでは、SDTMIG、ADaMIGの特定バージョン（例: SDTMIG 3.4, ADaMIG 1.3/1.4）の遵守が求められるほか、新しいドメインの導入やSupplemental Qualifiers（SUPPxxドメイン）の扱いの明確化などが盛り込まれることがあります。また、特定のアドミニストレーションツール（例: PMDAがPinnacle 21を推奨するように、FDAも同様のバリデーションツールを推奨）の使用が示唆されることもあります。\n*   **日本の実務への影響:** PMDAもFDAの動向を常に注視しており、FDAで義務化された要件が将来的にPMDAでも推奨・必須化されるケースが少なくありません。そのため、FDAのSDTCGの更新は、PMDAへの提出を視野に入れたプロジェクトにおいても、早期に情報収集し対応を検討するべき重要な情報源となります。\n\n**出典:** [FDA Study Data Technical Conformance Guide](https://www.fda.gov/drugs/regulatory-science-research-and-education/study-data-technical-conformance-guide)\n\n### EMA（欧州医薬品庁）の動向\nEMAは現在、eCTDを通じてCDISC標準の使用を強く「推奨」していますが、FDAのようにすべての臨床データ提出をCDISC標準で「義務化」しているわけではありません。しかし、国際的なデータ交換の促進と審査効率化の観点から、将来的にEMAもCDISCデータ提出を義務化する可能性は十分にあります。\n\n*   **推奨状況:** 現在、多くの企業がFDAへの申請と合わせてEMAにもCDISCデータ（SDTM/ADaM）を提出しており、事実上の国際標準として定着しています。\n*   **将来の展望:** EMAのガイダンスやワークショップでは、CDISC標準に関する議論が活発に行われています。近い将来、FDAと足並みをそろえ、CDISCデータ提出が必須となる可能性も考慮し、準備を進めることが賢明です。\n\n**出典:** [EMA eCTD guidance for applicants](https://www.ema.europa.eu/en/human-regulatory/research-development/electronic-submission-medicines/ectd-guidance-applicants)\n\n### CDISC標準の最新バージョン\nCDISCはSDTMIG、ADaMIG、Controlled Terminologyなどを継続的に更新しています。最新のバージョンは、新たな試験デザインやデータ収集方法に対応するために導入されたり、既存の定義がより明確化されたりします。提出先の規制当局が要求するCDISC標準のバージョンを正確に把握し、それに準拠することが必須です。\n\n*   **例:** SDTMIG v3.4では、COVID-19関連データに対応する新しいドメインが追加されるなど、時事的なニーズも反映されます。Controlled TerminologyはNCI Thesaurusを基盤として毎月更新されており、常に最新版を使用することが推奨されます。\n\n**出典:** [CDISC Website](https://www.cdisc.org/standards)\n\n## 日本での対応ポイント：PMDA固有の要件と国内実務\nPMDAへの電子データ提出は2016年10月から必須化されています。FDAの要件と共通する部分も多いですが、PMDA固有の注意点も存在します。\n\n### PMDAの電子データ提出要領\nPMDAは「電子データ提出に関する技術的要件」として、具体的な提出要領を公開しています。これはFDAのSDTCGに相当し、ファイル名、フォルダ構造、Define-XMLの仕様、バリデーションレポートの取り扱いなどについて詳細に規定しています。\n\n*   **PMDA固有の要件例:**\n    *   **ファイル名とフォルダ構造:** 特定の命名規則や階層構造が定められており、これに従わないと電子的に受け付けられない場合があります。\n    *   **バリデーションレポート:** Pinnacle 21 Community/Validatorの使用が推奨されており、その出力レポートを申請資料の一部として提出する際の取り扱いについても規定があります。\n    *   **日本語の扱い:** 日本語でのラベルやコメントの記述方法について、FDAとは異なる解釈が求められる場合があります。\n\nPMDAへのデータ提出を円滑に進めるためには、この要領を熟読し、ガイドラインに沿ったデータセットとドキュメントを作成することが不可欠です。\n\n**出典:** [PMDA 電子データ提出の必須化について](https://www.pmda.go.jp/review-services/drug-reviews/0002.html)\n\n### FDA/PMDA要件比較表\n| 項目                 | FDA（米国食品医薬品局）                                     | PMDA（独立行政法人医薬品医療機器総合機構）                              |\n| :------------------- | :-------------------------------------------------------- | :------------------------------------------------------------------ |\n| **データ提出必須化** | 2016年12月以降（新薬）、2017年12月以降（後発医薬品等）      | 2016年10月以降（新薬・後発医薬品等）                               |\n| **CDISC標準**        | 必須（SDTM, ADaM, Define-XML, CT）                         | 必須（SDTM, ADaM, Define-XML, CT）                                |\\\n| **CDISCバージョン**  | Study Data Technical Conformance Guideで指定             | 電子データ提出要領で指定（FDAの動向に追随することが多い）             |\\\n| **バリデーションツール** | Pinnacle 21 Validatorの使用を推奨                       | Pinnacle 21 Community/Validatorの使用を推奨                        |\\\n| **eCTD要件**         | eCTDを通じて提出。Study Data Technical Conformance Guideに詳細 | eCTDを通じて提出。電子データ提出要領に詳細                       |\\\n| **Define-XML**       | 必須。Study Data Technical Conformance Guideで仕様を規定   | 必須。電子データ提出要領で仕様を規定（FDAと共通部分が多い）           |\\\n| **提出物**           | SDTM/ADaMデータセット、Define-XML、xpt/xmlファイル、Reviewer's Guide、バリデーションレポートなど | SDTM/ADaMデータセット、Define-XML、xpt/xmlファイル、Reviewer's Guide、バリデーションレポートなど（フォルダ構造に一部違いあり） |\n\n\n### 日本の製薬企業・CROへのアドバイス\n\n1.  **早期からのCDISC標準導入と継続的な教育:** 臨床試験の計画段階からCDISC標準を意識したデータ収集設計を行い、プログラマー、データマネージャー、統計家など関係者全員がCDISCに関する知識を共有することが重要です。\n2.  **PMDA担当者との事前の擦り合わせ:** 疑問点や特殊なデータ構造がある場合、事前にPMDAの相談窓口を活用し、対応方針を確認することをお勧めします。これはFDAへの申請においても同様です。\n3.  **国内の経験豊富なベンダーとの連携:** CDISC変換やバリデーション経験が豊富なCROやコンサルタントと連携することで、スムーズなデータ提出を実現できます。\n\n## よくあるエラーと対処法：Pinnacle 21バリデーションTips\nPinnacle 21などのバリデーションツールは、提出データの品質を確保する上で不可欠です。しかし、多くのエラーや警告に直面することも珍しくありません。\n\n### Pinnacle 21エラーの種類と重要度\nPinnacle 21のメッセージは主に以下の3つの重要度に分類されます。\n\n*   **Error（エラー）:** 規則に完全に違反しており、データ提出前に修正が必須です。審査官がデータをレビューできない、または誤解する可能性のある重大な問題を示します。\n*   **Warning（警告）:** 規則には従っているものの、推奨事項に反している、または潜在的な問題がある可能性を示唆します。可能な限り修正することが望ましいですが、正当な理由があればJustification（正当化文書）を添えて提出することも可能です。\n*   **Notice（注意）:** 情報提供や、特定の状況下で確認すべき事項を示します。通常、修正の必要はありませんが、内容を確認し、問題がないことを確認する必要があります。\n\n### 頻出エラー例と対処法\n\n1.  **\n\n## CDISC実務に役立つリソース\n\nこの記事の内容をさらに深めるために、以下のリソースが役立ちます。\n\n- **[Amazon CDISC書籍](https://www.amazon.co.jp?tag=musclelove07-22)** - CDISC・臨床データ標準の参考書\n- **[Udemy SAS講座](https://www.udemy.com)** - 動画で学ぶCDISC実装\n- **[楽天 医薬品開発書籍](https://www.rakuten.co.jp)** - 製薬・臨床開発の参考書\n\n*上記リンクからご利用いただくと、サイト運営の支援になります。*\n",
  "hero_emoji": "📝",
  "hero_gradient": "135deg",
  "keyword": "承認審査, 規制当局, 臨床データ提出, PMDA, FDA",
  "category": "規制当局対応",
  "generated_at": "2026-04-09T05:10:43.750399",
  "has_affiliate": true,
  "affiliate_count": 3,
  "eyecatch_url": "https://images.unsplash.com/photo-1454165804606-c3d57bc86b40?w=1200&h=630&fit=crop&auto=format&q=80",
  "eyecatch_credit": "Photo from [Unsplash](https://unsplash.com/)"
}