{
  "title": "MIDDで加速！がん領域用量選択とFDA規制科学の最前線",
  "content": "# MIDDで加速！がん領域用量選択とFDA規制科学の最前線\n\n![MIDDで加速！がん領域用量選択とFDA規制科学の最前線](https://images.unsplash.com/photo-1568992687947-868a62a9f521?w=1200&h=630&fit=crop&auto=format&q=80)\n\n*Photo from [Unsplash](https://unsplash.com/)*\n\n\n## この記事でわかること\n*   MIDD（モデルベース開発）が医薬品開発、特にがん領域の用量選択にどう貢献するか\n*   FDAのMIDDおよび規制科学に関する最新の動向と要件\n*   PMDAへの電子データ提出における注意点と日米の規制当局間の違い\n*   CDISCデータ標準（SDTM, ADaM）とSASを用いたMIDDデータの実装例\n*   日本の製薬企業・CROがMIDDを実務に導入するための具体的なステップ\n\n## 結論から言うと\n**MIDD（Model-Informed Drug Development：モデルベース開発）**は、医薬品開発の効率化と成功確率向上に不可欠なアプローチです。特に**がん領域**における複雑な薬理作用や患者層の多様性に対し、**用量選択**の最適化において極めて有効なツールとして注目されています。**FDA**は**規制科学**の一環としてMIDDの活用を強く推奨しており、最新のガイドラインやプログラムを通じてその適用範囲を広げています。日本の製薬企業・CROも、国際的な開発競争を勝ち抜くために、FDAとPMDA双方の要件を理解し、CDISCデータ標準を活用したMIDDの実装が急務と言えるでしょう。\n\n## MIDD（モデルベース開発）とは？\nMIDD（Model-Informed Drug Development：モデルベース開発）とは、医薬品開発の様々なフェーズにおいて、数学的なモデルやシミュレーションを用いることで、科学的根拠に基づいた意思決定を支援するアプローチです。具体的には、薬物動態学（PK：Pharmacokinetics）や薬力学（PD：Pharmacodynamics）のデータ、あるいは疾患の進行モデルなどを統計的に解析し、薬物の挙動や効果、安全性を予測します。\n\nこのアプローチは、臨床試験のデザイン最適化、効果的な用量選択、特定の患者集団における薬物反応の予測など多岐にわたる場面で活用されます。特に、複雑な疾患メカニズムを持つ**がん領域**では、多様なバイオマーカーや併用療法を考慮した**用量選択**が求められるため、MIDDの導入により、より精密で効率的な開発が可能になります。MIDDは、単に解析手法に留まらず、開発戦略全体を科学的に洗練させるための**規制科学**（Regulatory Science：規制当局の意思決定を支援する科学）の重要な柱として位置づけられています。\n\n## 実務での使い方・実装手順：MIDDを活用した用量選択\nMIDDを用いた**がん領域**の**用量選択**は、特にデータ駆動型のアプローチが求められます。ここでは、CDISCデータ標準（SDTM, ADaM）を基盤とした、SASプログラマーの実務における手順とコード例を解説します。\n\n### 1. データの準備と標準化（SDTMからADaMへ）\nMIDD解析の出発点は、高品質で標準化されたデータです。臨床試験で収集された生データは、まずCDISC SDTM（Study Data Tabulation Model：臨床試験データを構造化するための標準）に準拠したデータセットに変換されます。その後、解析目的に合わせてADaM（Analysis Data Model：統計解析を行うためのデータセットを定義する標準）データセットを作成します。\n\nMIDD、特にPK/PDモデリングには、適切な時間間隔での薬物濃度データ（PKデータ）や、腫瘍縮小率、有害事象の発現状況といった有効性・安全性データ（PDデータ）が不可欠です。\n\n**SASコード例：PKデータとPDデータの結合（概念）**\n以下は、SDTMのPC（薬物濃度）ドメインとRS（応答評価）ドメインから、MIDD解析用のADaMデータを作成する際の概念的なSASコードです。\n\n```sas\n/* ADPC: PK解析用データセットの作成 */\ndata ADPC;\n  set sdtm.pc;\n  where PCTESTCD = 'CMAX' or PCTESTCD = 'TMAX'; /* 例: CmaxとTmaxのみを抽出 */\n  /* 必要な変数を追加・加工 */\n  keep USUBJID RFSTDTC PCORRES PCTESTCD PCSTRESN;\nrun;\n\n/* ADRS: 応答評価解析用データセットの作成 */\ndata ADRS;\n  set sdtm.rs;\n  where RSSTAT = 'COMPLETED'; /* 完了した評価のみ */\n  /* 必要な変数を追加・加工 */\n  keep USUBJID RFSTDTC RSLINKID RSSTRESN;\nrun;\n\n/* MIDD解析用マスターデータの結合 */\ndata ADMIDD_MASTER;\n  merge ADPC (in=a) ADRS (in=b);\n  by USUBJID RFSTDTC;\n  if a and b; /* 両方のデータセットに存在するレコードのみ */\n  /* 必要に応じて、投与量情報(EXドメイン等)も結合 */\n  /* ここでモデリングツールで利用しやすい形に加工 */\nrun;\n\nproc contents data=ADMIDD_MASTER varnum;\nrun;\n\nproc print data=ADMIDD_MASTER (obs=10);\nrun;\n```\n\n### 2. モデリングとシミュレーション\n準備されたデータを用いて、PK/PDモデルを構築します。このステップでは、SASだけでなく、NONMEM, R, Monolixなどの専門的なモデリングソフトウェアが用いられることが一般的です。SASはデータの前処理、結果の可視化、レポート作成において重要な役割を果たします。\n\n*   **PKモデリング:** 血中薬物濃度が時間とともにどのように変化するかをモデル化します。個体差を考慮した母集団PKモデルなどが構築されます。\n*   **PDモデリング:** 薬物濃度と薬効（例: 腫瘍縮小効果）や有害事象との関係をモデル化します。\n*   **臨床試験シミュレーション:** 構築されたモデルを用いて、様々な用量設定や投与レジメンにおける臨床アウトカムをシミュレーションし、最適な**用量選択**を検討します。\n\n### 3. 結果の解釈と報告\nモデルベースの解析結果は、開発チームや規制当局に対して、意思決定をサポートする形で提示されます。この際、結果の妥当性や頑健性を明確に説明することが重要です。CDISC標準に準拠したデータは、解析結果の透明性と再現性を高め、報告の信頼性向上に寄与します。\n\n## 海外の最新動向：FDAにおけるMIDDと規制科学\n**FDA**は、**MIDD（モデルベース開発）**を**規制科学**の重要な柱の一つと位置づけ、医薬品開発の効率化と患者アクセスの改善を推進しています。特に**がん領域**では、多様な薬剤と複雑な病態に対応するため、MIDDの活用が積極的に推奨されています。\n\n### FDAのMIDD推進イニシアティブ\nFDAは、PDUFA VII（Prescription Drug User Fee Act：処方薬使用者料金法）プログラムの下で、MIDDの活用を加速するための具体的な取り組みを進めています。これには、以下の要素が含まれます。\n\n*   **ガイダンスの提供:** MIDDを活用した申請資料の作成に関するガイダンスを公開し、業界の理解と適用を促進しています。\n*   **MIDDに関する専門知識の強化:** FDA内部の審査官がMIDDに関する専門知識を習得するためのトレーニングを強化しています。\n*   **業界との連携:** 製薬企業やアカデミアとの連携を通じて、MIDDのベストプラクティスを共有し、新たな手法の開発を支援しています。\n\n**出典:** [FDA Model-Informed Drug Development (MIDD) Paired Meeting Program](https://www.fda.gov/drugs/regulatory-science-research-and-education/model-informed-drug-development-midd-paired-meeting-program)\n\n### がん領域におけるMIDDの具体的活用事例\nFDAは、特に以下のような**がん領域**の開発においてMIDDの活用を期待しています。\n*   **最適な**用量選択**と投与スケジュールの決定:** 小児や腎機能・肝機能障害患者など、特殊な集団における用量調節。複数薬剤の併用療法における相互作用の評価。\n*   **希少がんやバイオマーカー駆動型試験のデザイン最適化:** 患者数が少ない希少がんにおいて、限られたデータから最大の知見を得るための試験デザインの最適化。\n*   **承認後（Post-marketing）の安全性評価:** 実臨床データ（Real-World Data）と組み合わせて、新たな安全性シグナルの早期検出やリスク評価。\n\n### FDA CDISC 提出要件\n**FDA**への電子データ提出において、CDISC標準（SDTM, ADaM, Define-XML, CT）の遵守は必須です。MIDD解析に用いるデータも、これらの標準に従って提出する必要があります。特に「Study Data Technical Conformance Guide」では、データセットの構造、変数命名規則、制御用語（Controlled Terminology）の使用について詳細な要件が示されています。\n\nMIDD解析の結果として得られるモデルパラメータやシミュレーション結果も、必要に応じて「Analysis Results Metadata (ARM)」などのCDISC標準拡張や、別途規制当局が指定するフォーマットでの提出が求められる場合があります。事前にFDAの関連文書を確認し、データ提出計画を綿密に立てることが重要です。\n\n## 日本での対応ポイント：PMDAとMIDD、電子データ提出\nPMDA（医薬品医療機器総合機構）も、医薬品開発の効率化と科学的根拠に基づく審査の重要性を認識しており、MIDD（モデルベース開発）の活用に期待を寄せています。しかし、FDAと比較すると、MIDDに対するガイダンスや具体的な推進プログラムの公開は段階的であると言えます。\n\n### PMDAにおけるMIDDの位置づけ\nPMDAは、日本における承認申請において、PK/PDモデルを用いた解析結果を審査資料の一部として受け入れています。特に、ブリッジング戦略や用法・用量設定の根拠として、MIDDの解析結果が活用される事例が増えています。PMDAの薬事戦略相談や対面助言では、MIDDに関する相談も増えており、規制当局との早期からの対話が推奨されます。\n\n**FDA要件とPMDA要件の違いの補足:**\n*   **FDA:** MIDD Paired Meeting Programなど、MIDDに関する積極的なイニシアティブやプログラムを公開し、開発早期からの活用を奨励しています。**規制科学**として明確に位置づけ、その成果を評価プロセスに組み込む動きが顕著です。\n*   **PMDA:** MIDDの有用性を認識し、審査で利用されることは増えていますが、FDAのように体系的なMIDD推進プログラムや詳細なガイダンスが公開されているわけではありません。個々の申請における科学的妥当性が重視される傾向にあります。\n\n### PMDA 電子データ提出とCDISC標準\nPMDAへの申請においても、CDISCデータ標準に準拠した電子データ提出は必須となっています。eCTD（electronic Common Technical Document：医薬品承認申請のための電子共通技術文書）のForm 5.3「臨床試験報告書」に含まれるデータは、SDTMとADaMフォーマットで提出する必要があります。これは**FDA CDISC提出**要件と同様です。\n\nMIDD解析に用いるデータも、以下の点に注意して提出する必要があります。\n1.  **SDTM/ADaMの正確な実装:** MIDD解析の基盤となるSDTMおよびADaMデータが、最新のCDISC IG（Implementation Guide：実装ガイド）と制御用語（Controlled Terminology）に準拠していることを確認します。\n2.  **Define-XMLの完備:** すべてのSDTMおよびADaMデータセット、および解析コードを説明するDefine-XMLが正確に作成されている必要があります。\n3.  **非標準データの扱い:** MIDD解析で生成される特定のモデルパラメータや中間データなど、CDISC標準で直接表現できないデータについては、Define-XMLで明確に定義し、適切なメタデータを付与して提出する必要があります。PMDAの審査員が理解しやすいよう、詳細な説明文書（Study Data Reviewer's Guideなど）を添付することが重要です。\n\n### 国内の実務に落とし込むアドバイス\n日本の製薬企業・CROは、以下の点を意識してMIDDを実務に導入すべきです。\n*   **早期からの導入:** 開発の初期段階からMIDD専門家や規制当局との対話を開始し、MIDD戦略を練ることが重要です。特に**がん領域**では、複雑な病態を早期にモデル化することで、開発リスクを低減できます。\n*   **データサイエンス人材の育成:** SASプログラマーを含むデータサイエンス部門が、MIDDの知識を習得し、統計モデリングツールを扱えるようになることが求められます。\n*   **国際共同治験への対応:** FDAとPMDAの両方の要件を満たすCDISCデータ標準とMIDD解析戦略を策定し、グローバルでの同時開発・申請を効率化します。\n\n## よくあるエラーと対処法：CDISCデータのバリデーション\nMIDD解析の質は、基となるCDISCデータの質に大きく依存します。不適切なデータは、誤ったモデル構築や意思決定につながるため、強力なバリデーションプロセスが不可欠です。ここでは、Pinnacle 21などのバリデーションツールでよく見られるエラーと、その対処法について解説します。\n\n### 1. データ型/フォーマットの不一致エラー\n*   **エラー例:** 数値型であるべき変数が文字列型として定義されている、または日付変数のフォーマットがCDISC標準と異なる。\n*   **対処法:** SASの`PROC CONTENTS`や`PROC MEANS`でデータ型を確認し、`INPUT`関数や`FORMAT`ステートメントを用いて正確な型・フォーマットに変換します。Define-XMLの定義と実データが一致しているか常に確認しましょう。\n\n    ```sas\n    /* 例: 日付変数のフォーマット修正 */\n    data sdtm.dm_new;\n      set sdtm.dm;\n      /* RFSTDTCが文字列の場合、ISO 8601形式に変換して数値型に */\n      if length(RFSTDTC) = 10 then call symputx('is_char_dt', '1');\n      else call symputx('is_char_dt', '0');\n\n      if &is_char_dt. = '1' then do;\n        RFSTDTC_N = input(RFSTDTC, yymmdd10.); /* 文字列からSAS日付値に変換 */\n        format RFSTDTC_N yymmddd10.; /* SAS日付フォーマット適用 */\n      end;\n      else do;\n        RFSTDTC_N = RFSTDTC; /* 既に数値型の場合はそのまま */\n        format RFSTDTC_N yymmddd10.;\n      end;\n\n      /* 最終的にRFSTDTC_Nを標準変数名にリネームして使う */\n      rename RFSTDTC_N=RFSTDTC_NEW;\n    run;\n    ```\n\n### 2. 必須変数の欠損エラー\n*   **エラー例:** SDTMやADaMの必須（Required）変数に欠損値が存在する。\n*   **対処法:** CDISC IGを再確認し、当該変数が必須であるか確認します。もし必須であれば、ソースデータまで遡って欠損の理由を特定し、補完が可能であれば補完します。補完できない場合は、Define-XMLのコメントやStudy Data Reviewer's Guideで欠損の理由を明確に説明する必要があります。\n\n### 3. 制御用語（Controlled Terminology）の不一致エラー\n*   **エラー例:** 変数に含まれる値が、CDISC CTで定義された許容値リストに存在しない。\n*   **対処法:** CDISCの最新の制御用語ファイルを参照し、許容される値を使用するようにデータを修正します。SASでは、`PROC FORMAT`や`PROC FREQ`を用いて、既存の値とCTのリストを比較するマクロを作成すると効率的です。\n\n    ```sas\n    /* 例: CT違反チェックの概念コード */\n    /* ADSLのSEX変数を例に */\n    data ct_check;\n      input sex $;\n      datalines;\nM\nF\nU\nUNKNOWN\n;\n\n    proc freq data=ct_check;\n      table sex / out=sex_freq (drop=percent);\n    run;\n\n    /* CTリスト (例: Male, Female, Unknown) */\n    data ct_list;\n      input valid_sex $;\n      datalines;\nMale\nFemale\nUnknown\n;\n\n    proc sql;\n      create table ct_violations as\n      select distinct a.sex\n      from sex_freq as a\n      left join ct_list as b\n      on a.sex = b.valid_sex\n      where b.valid_sex is null;\n    quit;\n\n    proc print data=ct_violations;\n      title 'SEX Variable CT Violations';\n    run;\n    ```\n\n### 4. ドメイン間の一貫性エラー\n*   **エラー例:** 各ドメインのUSUBJID（被験者識別子）や訪問日などが、ドメイン間で一致しない。\n*   **対処法:** データセット間の結合（`MERGE`）や結合前後のレコード数確認（`PROC SQL`の`COUNT`や`FULL JOIN`）を慎重に行い、論理的な一貫性を確保します。`RFSTDTC`などの参照日時変数は特に注意が必要です。\n\nこれらのバリデーションは、Pinnacle 21 Enterprise/CommunityやSASプログラムを用いて自動化し、データ提出前に徹底的に実施することで、FDAやPMDAからの指摘を減らし、審査プロセスをスムーズに進めることができます。\n\n## よくある質問（FAQ）\n\n*   **Q1: MIDDはなぜがん領域で重要なのでしょうか？**\n    *   **A1:** がん領域は、薬剤の作用機序が複雑で、患者さんの病態や遺伝的背景も多様です。MIDD（モデルベース開発）を用いることで、限られた臨床データから薬物の挙動や効果、安全性を詳細に予測し、個別化医療の推進や最適な用量選択を可能にします。これにより、より早く、より効率的に、より安全な薬剤を患者さんに届けることができます。\n\n*   **Q2: FDAはMIDDに対してどのようなスタンスですか？**\n    *   **A2:** FDAはMIDDを**規制科学**の重要な要素として非常に積極的に推進しています。PDUFA VIIプログラムの下、ガイダンスの提供、MIDD Paired Meeting Programを通じた企業との対話、審査官の専門知識強化など、多角的にMIDDの活用を奨励しています。これは、開発の効率化と患者アクセスの改善を目的としています。\n\n*   **Q3: PMDAへの電子データ提出でMIDDのデータはどのように扱うべきですか？**\n    *   **A3:** PMDAへの電子データ提出においても、MIDD解析の基盤となるSDTMおよびADaMデータはCDISC標準に準拠する必要があります。MIDDで生成されたモデルパラメータやシミュレーション結果など、CDISC標準に直接マッピングできないデータについては、Define-XMLで詳細に定義し、Study Data Reviewer's Guideで解析プロセスや結果の解釈を明確に説明することが重要です。早期にPMDAと相談することをお勧めします。\n\n*   **Q4: MIDDで作成したデータをCDISC標準で提出する際の注意点は？**\n    *   **A4:** MIDD解析に用いるデータは、SDTMとADaMの最新のIG（実装ガイド）と制御用語に厳密に準拠している必要があります。特に、解析に特化した派生変数やフラグ変数を作成する際は、ADaMの原則に従い、Define-XMLでその導出ロジックを明確に記述してください。また、モデリングソフトウェアで出力された中間データについても、必要に応じてメタデータを整備し、提出の要否を検討する必要があります。\n\n*   **Q5: SASプログラマーとしてMIDDにどう関わるべきですか？**\n    *   **A5:** SASプログラマーは、MIDD解析において、高品質なSDTM/ADaMデータを作成する基盤となります。具体的には、生データからCDISC標準に準拠したデータセットを効率的に生成し、モデリングツールが利用しやすい形に加工するスキルが求められます。また、解析結果の可視化やバリデーションレポートの作成にもSASは不可欠です。PK/PDモデリングの基礎知識を身につけ、データサイエンティストや統計家と密に連携することで、MIDDプロジェクトに大きく貢献できます。\n\n## CDISC実務に役立つリソース\n\nこの記事の内容をさらに深めるために、以下のリソースが役立ちます。\n\n- **[Amazon CDISC書籍](https://www.amazon.co.jp?tag=musclelove07-22)** - CDISC・臨床データ標準の参考書\n- **[Udemy SAS講座](https://www.udemy.com)** - 動画で学ぶCDISC実装\n- **[楽天 医薬品開発書籍](https://www.rakuten.co.jp)** - 製薬・臨床開発の参考書\n\n*上記リンクからご利用いただくと、サイト運営の支援になります。*\n\n\n## まとめ\n本記事では、**MIDD（モデルベース開発）**が**がん領域**における**用量選択**の最適化においていかに重要であるか、そして**FDA**が**規制科学**の一環としてMIDDを強力に推進している現状について解説しました。CDISCデータ標準（SDTM, ADaM）を基盤としたデータ準備とSASによる実装、さらにはFDAとPMDA双方の電子データ提出要件への対応が、日本の製薬企業・CROにとって国際的な競争力を高める鍵となります。\n\nMIDDの導入は、単なる技術的課題に留まらず、データ駆動型の意思決定文化を組織に根付かせることを意味します。これからも「CDISC Standards Navigator」は、最新の海外規制動向を分かりやすくお伝えし、日本の医薬品開発の発展に貢献してまいります。MIDDに関するご質問や、CDISCデータ標準の実装で困ったことがあれば、いつでもご相談ください。\n",
  "meta_description": "MIDD（モデルベース開発）を用いたがん領域の用量選択戦略と、FDAの最新規制科学動向を解説。PMDA要件との違いやSAS実装例、データ提出のポイントまで、日本の実務担当者向けに詳解します。",
  "tags": [
    "MIDD",
    "モデルベース開発",
    "がん領域",
    "用量選択",
    "規制科学",
    "FDA",
    "PMDA",
    "CDISC",
    "SAS",
    "電子申請"
  ],
  "slug": "midd-cancer-fda-regulatory-science",
  "faq": [
    {
      "question": "MIDDはなぜがん領域で重要なのでしょうか？",
      "answer": "がん領域は、薬剤の作用機序が複雑で、患者さんの病態や遺伝的背景も多様です。MIDD（モデルベース開発）を用いることで、限られた臨床データから薬物の挙動や効果、安全性を詳細に予測し、個別化医療の推進や最適な用量選択を可能にします。これにより、より早く、より効率的に、より安全な薬剤を患者さんに届けることができます。"
    },
    {
      "question": "FDAはMIDDに対してどのようなスタンスですか？",
      "answer": "FDAはMIDDを規制科学の重要な要素として非常に積極的に推進しています。PDUFA VIIプログラムの下、ガイダンスの提供、MIDD Paired Meeting Programを通じた企業との対話、審査官の専門知識強化など、多角的にMIDDの活用を奨励しています。これは、開発の効率化と患者アクセスの改善を目的としています。"
    },
    {
      "question": "PMDAへの電子データ提出でMIDDのデータはどのように扱うべきですか？",
      "answer": "PMDAへの電子データ提出においても、MIDD解析の基盤となるSDTMおよびADaMデータはCDISC標準に準拠する必要があります。MIDDで生成されたモデルパラメータやシミュレーション結果など、CDISC標準に直接マッピングできないデータについては、Define-XMLで詳細に定義し、Study Data Reviewer's Guideで解析プロセスや結果の解釈を明確に説明することが重要です。早期にPMDAと相談することをお勧めします。"
    },
    {
      "question": "MIDDで作成したデータをCDISC標準で提出する際の注意点は？",
      "answer": "MIDD解析に用いるデータは、SDTMとADaMの最新のIG（実装ガイド）と制御用語に厳密に準拠している必要があります。特に、解析に特化した派生変数やフラグ変数を作成する際は、ADaMの原則に従い、Define-XMLでその導出ロジックを明確に記述してください。また、モデリングソフトウェアで出力された中間データについても、必要に応じてメタデータを整備し、提出の要否を検討する必要があります。"
    },
    {
      "question": "SASプログラマーとしてMIDDにどう関わるべきですか？",
      "answer": "SASプログラマーは、MIDD解析において、高品質なSDTM/ADaMデータを作成する基盤となります。具体的には、生データからCDISC標準に準拠したデータセットを効率的に生成し、モデリングツールが利用しやすい形に加工するスキルが求められます。また、解析結果の可視化やバリデーションレポートの作成にもSASは不可欠です。PK/PDモデリングの基礎知識を身につけ、データサイエンティストや統計家と密に連携することで、MIDDプロジェクトに大きく貢献できます。"
    }
  ],
  "hero_emoji": "📝",
  "hero_gradient": "135deg",
  "keyword": "MIDD, モデルベース開発, がん領域, 用量選択, 規制科学, FDA",
  "category": "規制当局対応",
  "generated_at": "2026-04-16T05:30:58.489392",
  "has_affiliate": true,
  "affiliate_count": 3,
  "eyecatch_url": "https://images.unsplash.com/photo-1568992687947-868a62a9f521?w=1200&h=630&fit=crop&auto=format&q=80",
  "eyecatch_credit": "Photo from [Unsplash](https://unsplash.com/)"
}