{
  "title": "PK解析をCDISC標準で効率化！SDTM・ADaM・SASワークフロー徹底解説",
  "content": "# PK解析をCDISC標準で効率化！SDTM・ADaM・SASワークフロー徹底解説\n\n![PK解析をCDISC標準で効率化！SDTM・ADaM・SASワークフロー徹底解説](https://images.unsplash.com/photo-1460925895917-afdab827c52f?w=1200&h=630&fit=crop&auto=format&q=80)\n\n*Photo from [Unsplash](https://unsplash.com/)*\n\n\n## この記事でわかること\n*   PK解析（薬物動態）におけるCDISC (Clinical Data Interchange Standards Consortium) 標準の重要性とワークフローがわかります。\n*   SDTM (Study Data Tabulation Model) からADaM (Analysis Data Model) へのPKデータマッピングの具体的な手順とSASコード例を学べます。\n*   FDA (米国食品医薬品局) やPMDA (医薬品医療機器総合機構) の最新規制要件と、それに対応するためのポイントを把握できます。\n*   CRO (医薬品開発業務受託機関) や製薬企業で役立つ、効率的なPK ADaM作成とバリデーションのヒントが得られます。\n\n## 結論から言うと\nPK解析におけるCDISC標準への準拠は、規制当局への申請を円滑に進める上で不可欠です。特にSDTMのPP (関連事象) /PC (薬物濃度) ドメインから、ADaMのBDS (Basic Data Structure) を用いてAUC (薬物濃度時間曲線下面積) やCmax (最高血中濃度) などのPKパラメータを作成するワークフローを確立することが重要です。このプロセスをSASで自動化し、適切にバリデーションすることで、データの品質とトレーサビリティを確保し、FDA/PMDA双方の要件を満たすことができます。\n\n## PK解析（薬物動態）におけるCDISC標準ワークフローとは？\nPK解析（薬物動態解析）は、薬剤が体内でどのように吸収され、分布し、代謝され、排泄されるかを評価する重要なプロセスです。この解析結果は、薬剤の安全性と有効性を判断し、適切な投与量や投与方法を決定するために不可欠です。\n\n近年、世界中の規制当局（FDA、PMDAなど）は、臨床試験データの提出にCDISC標準の利用を義務付けています。これにより、データの一貫性と品質が向上し、審査プロセスが効率化されることが期待されます。PK解析データも例外ではなく、CDISC標準に沿ってSDTM (Standard Data Tabulation Model) およびADaM (Analysis Data Model) フォーマットで提出する必要があります。\n\n**CDISCにおけるPKデータの流れ：**\n\n1.  **Raw Data (生データ):** 臨床試験で測定された個々の薬物濃度データなど。\n2.  **SDTM (Standard Data Tabulation Model):** Raw Dataを標準化された形式（タブレーションデータ）に変換します。PKデータは主にPC (薬物濃度) ドメインとPP (関連事象) ドメインで表現されます。\n3.  **ADaM (Analysis Data Model):** SDTMデータを基に、統計解析に直接使用できる形式（解析データセット）に変換します。PK解析では、AUC (薬物濃度時間曲線下面積) やCmax (最高血中濃度) といったPKパラメータを算出し、これをADaMデータセットとして構築します。\n4.  **Define-XML (メタデータ):** SDTMおよびADaMデータセットの構造、変数、ロジックなどを定義したメタデータファイルです。データセットと同様に提出が求められます。\n\nこの一連のワークフローを適切に構築することで、CRO (医薬品開発業務受託機関) や製薬企業は、データの透明性を高め、バリデーションを容易にし、規制当局の要件を満たした高品質なデータパッケージを提供できるようになります。\n\n## 実務での使い方・実装手順：PKデータとADaM設計\nPKデータのADaM設計は、SDTMデータを基に解析用の変数を派生させ、統計解析ツールで扱いやすい形式に整理するプロセスです。ここでは、具体的なSASコード例を交えながら、その手順を解説します。\n\n### Step 1: SDTMマッピングの基本（PC/PPドメイン）\nPK解析に必要なSDTMデータは主に以下の2つのドメインです。\n\n*   **PCドメイン (Pharmacokinetics Concentrations):** 各被験者の各時点における薬物濃度測定値とその関連情報。\n    *   `USUBJID` (被験者識別子), `PCORRES` (薬物濃度測定値), `PCSTAT` (測定ステータス), `PCTPTNUM` (時点番号), `PCTPTREF` (時点の参照情報), `PCDTC` (測定日時) などが重要です。\n*   **PPドメイン (Pharmacokinetics Parameters):** 非コンパートメント解析（NCA: Non-Compartmental Analysis）などで算出された個々のPKパラメータ（AUC, Cmaxなど）をSDTM形式で保持します。\n    *   `USUBJID`, `PPPARM` (パラメータ名), `PPORRES` (パラメータ測定値), `PPSTRESN` (標準化された数値結果) など。\n    *   *補足:* PPドメインは、解析前のNCA結果を格納する場所であり、これからADaMで算出するPKパラメータとは少し役割が異なります。ADaMでは解析で使われる最終的なPKパラメータを格納します。\n\n### Step 2: PK ADaM設計の考え方（BDSの利用）\nPK解析用ADaMは、主にBDS (Basic Data Structure) を用いて構築されます。BDSは、解析対象のデータと解析用の派生変数を1レコードで管理するのに適しています。\n\n**ADaMの主要な派生変数ロジック:**\n\n*   **主要なPKパラメータ:**\n    *   `AUC` (Area Under the Curve, 薬物濃度時間曲線下面積): `AUCLAST` (最終時点までのAUC), `AUCINF_OBS` (最終観測点から無限大までのAUC) など。\n    *   `CMAX` (Maximum Observed Concentration, 最高血中濃度)\n    *   `TMAX` (Time of CMAX, 最高血中濃度到達時間)\n    *   `LAMZ` (Terminal Elimination Rate Constant, 終末相消失速度定数)\n    *   `HL` (Half-Life, 半減期)\n    *   これらはNCAツール（WinNonlin, Phoenix WinNonlinなど）で計算されることが多く、その結果をADaMに組み込みます。\n*   **解析対象フラグ:**\n    *   `ANLFL` (Analysis Flag): 解析対象となるレコードを示すフラグ（'Y'/'N'）。\n    *   `SAFFL` (Safety Analysis Flag): 安全性解析対象レコードを示すフラグ（'Y'/'N'）。\n    *   `EFFICFL` (Efficacy Analysis Flag): 有効性解析対象レコードを示すフラグ（'Y'/'N'）。\n    *   `PKFL` (Pharmacokinetics Analysis Flag): PK解析対象レコードを示すフラグ（'Y'/'N'）。\n*   **時間関連変数:**\n    *   `ADTM` (Analysis Date/Time): 解析時点の日時。\n    *   `ADY` (Analysis Day): 解析日 (ベースラインからの相対日)。\n    *   `ATPT` (Analysis Time Point): 解析時点のテキスト記述。\n    *   `ATPTN` (Analysis Time Point Number): 解析時点の数値順序。\n\n**ADaM BDSにおけるPKパラメータの構造例:**\n| 変数名     | ラベル                       | 型   | 説明                                           |\n| :--------- | :--------------------------- | :--- | :--------------------------------------------- |\n| `STUDYID`  | Study Identifier             | CHAR | 試験識別子                                     |\n| `USUBJID`  | Unique Subject Identifier    | CHAR | 被験者識別子                                   |\n| `ADAPT`    | ADaM Analysis Parameter      | CHAR | PKパラメータ名 (例: 'AUCINF_OBS', 'CMAX')        |\n| `ADAPTN`   | ADaM Analysis Parameter Number | NUM  | PKパラメータの数値順序                         |\n| `AVAL`     | Analysis Value               | NUM  | 解析値 (例: AUC, Cmaxの実際の数値)               |\n| `AVALU`    | Analysis Value Unit          | CHAR | 解析値の単位 (例: 'ng*h/mL', 'ng/mL')          |\n| `ANLFL`    | Analysis Record Flag         | CHAR | 解析対象レコードフラグ ('Y'/'N')               |\n| `PARAMCD`  | Parameter Code               | CHAR | パラメータの短縮コード (ADaMIG準拠)           |\n| `PARAM`    | Parameter                    | CHAR | パラメータ名 (ADaMIG準拠)                      |\n| `TRACEREF` | Traceability Reference       | CHAR | 元のSDTMレコードへの追跡情報 (例: PC.PCDTC) |\n\n### Step 3: SASコード例とマッピングロジック\nここでは、NCAツールで計算されたPKパラメータ（AUC, Cmax, Tmaxなど）がSDTMのPPドメインまたはカスタムドメイン（もしPPに合わない場合）として既にあるという前提で、それらをADaM BDSに変換する例を示します。\n\n```sas\n/* --- PKパラメータの元データ（SDTM-PP相当、またはNCAツール出力）を想定 --- */\n/* 通常はNCAツールの出力ファイルやSDTM.PPから読み込みます */\nDATA PK_PARAMS;\n  LENGTH STUDYID USUBJID PPARM $20 PPORRES $20 PPSTRESN $20;\n  INPUT STUDYID $ USUBJID $ PPARM $ PPORRES $ PPSTRESN $;\n  DATALINES;\nSTUDY001 SUBJ001 AUCINF_OBS 1234.56 1234.56\nSTUDY001 SUBJ001 CMAX 123.45 123.45\nSTUDY001 SUBJ001 TMAX 2.0 2.0\nSTUDY001 SUBJ002 AUCINF_OBS 987.65 987.65\nSTUDY001 SUBJ002 CMAX 98.76 98.76\nSTUDY001 SUBJ002 TMAX 4.0 4.0\n;\nRUN;\n\n/* --- SDTM.DM (被験者特性) ドメインを想定 --- */\nDATA DM;\n  LENGTH STUDYID USUBJID SEX $1;\n  INPUT STUDYID $ USUBJID $ SEX $;\n  DATALINES;\nSTUDY001 SUBJ001 M\nSTUDY001 SUBJ002 F\n;\nRUN;\n\n/* --- PK ADaM BDSの作成 --- */\nDATA ADPK;\n  SET PK_PARAMS;\n\n  /* ADaM必須変数の導出 */\n  STUDYID = STUDYID;\n  USUBJID = USUBJID;\n\n  /* PPARMに基づきADAPT/ADAPTNを定義 */\n  LENGTH ADAPT $30 AVALU $20;\n  SELECT (PPARM);\n    WHEN ('AUCINF_OBS') DO; ADAPT = 'AUC(0-INF)_OBS'; ADAPTN = 1; AVALU = 'ng*h/mL'; END;\n    WHEN ('CMAX')       DO; ADAPT = 'Cmax';          ADAPTN = 2; AVALU = 'ng/mL'; END;\n    WHEN ('TMAX')       DO; ADAPT = 'Tmax';          ADAPTN = 3; AVALU = 'h';     END;\n    OTHER DO; ADAPT = PPARM; ADAPTN = .; AVALU = 'Unknown'; END; /* 未定義パラメータの場合 */\n  END;\n\n  /* 解析値 (AVAL) は数値型に変換 */\n  AVAL = INPUT(PPSTRESN, BEST.);\n\n  /* 解析対象フラグの設定 */\n  ANLFL = 'Y'; /* 全てのPKパラメータを解析対象とする例 */\n  PKFL = 'Y';  /* PK解析フラグも'Y'に設定 */\n\n  /* その他のADaM必須変数 */\n  PARAMCD = PPARM; /* ADaMIGで定義されるPARAMCDを使用することが推奨 */\n  PARAM = ADAPT;   /* PARAMもADaMIGで定義されるPARAMを使用することが推奨 */\n\n  /* 必要に応じて、SDTM.DMなどから被験者特性をマージ */\n  /* MERGE DM BY STUDYID USUBJID; */\n  /* -> この例ではシンプルにするため、マージは省略 */\n\n  /* 変数属性 (ラベル、フォーマット) の設定 */\n  LABEL ADAPT='Analysis Parameter Description'\n        ADAPTN='Analysis Parameter Number'\n        AVAL='Analysis Value'\n        AVALU='Analysis Value Unit'\n        ANLFL='Analysis Record Flag'\n        PKFL='PK Analysis Flag'\n        PARAMCD='Parameter Code'\n        PARAM='Parameter';\n\n  FORMAT AVAL 8.2; /* AVALの表示形式 */\nRUN;\n\nPROC PRINT DATA=ADPK;\n  TITLE 'PK ADaM BDS Dataset';\nRUN;\n```\n\n**マッピングロジックのポイント:**\n1.  **トレーサビリティ (Traceability):** ADaMデータセットは、SDTMデータセットや元データ（NCA出力など）との紐付けが明確である必要があります。Define-XMLでその関係性を詳細に記述します。\n2.  **一意性:** 各被験者、各パラメータ、各解析対象において、ADaMレコードが一意になるように設計します。\n3.  **解析準備:** 統計解析プログラム（例：SAS PROCs, R）がそのまま読み込んで使用できる形式を目指します。例えば、`ADAPT`変数でパラメータを識別し、`AVAL`変数にその値を持たせるなど、汎用的な構造が重要です。\n\n## 海外の最新動向：FDA/EMAの要件とCDISC標準の更新\nFDA (米国食品医薬品局) およびEMA (欧州医薬品庁) は、臨床試験データ提出におけるCDISC標準の採用を強く推奨し、義務化を進めています。特にPK解析データについては、その重要性から厳格な対応が求められています。\n\n### FDAの動向\nFDAは「Study Data Technical Conformance Guide (TCG)」を定期的に更新しており、データ提出における技術的な要件を明確にしています。\n*   **CDISC SDTM/ADaMへの準拠:** PKデータを含む全ての試験データは、SDTMIG (SDTM Implementation Guide) およびADaMIG (ADaM Implementation Guide) に従って作成される必要があります。\n*   **Define-XMLの必須化:** データセットのメタデータ（変数定義、導出ロジックなど）を記述したDefine-XML 2.0または2.1の提出が必須です。特にADaMの導出ロジックは、Define-XMLの`<Method>`エレメントや`<Source>`エレメントを用いて詳細に記載することが求められます。\n*   **PKS/PKPPドメイン:** SDTMIG v3.3以降で導入されたPKS (Pharmacokinetics Subject) ドメインとPKPP (Pharmacokinetics Parameters) ドメインは、PK関連情報の標準化を促進します。NCAツールからの出力は、これらのドメインにマッピングされることが推奨されます。ただし、解析に用いる最終的なPKパラメータはADaMで作成します。\n\n**出典:**\n*   [FDA Study Data Technical Conformance Guide](https://www.fda.gov/media/89367/download)\n*   [CDISC SDTMIG (Pharmacokinetics domains)](https://www.cdisc.org/standards/foundational/sdtmig)\n\n### EMAの動向\nEMAもまた、CTD (Common Technical Document) 形式でのデータ提出を求めており、CDISC標準への準拠は不可欠です。\n*   **eSubmission Roadmap:** EMAは電子提出のロードマップを公開しており、CDISC標準に基づく臨床データ提出が将来的に義務化されることを示唆しています。\n*   **ADaMの重要性:** EMAもFDAと同様に、統計解析の再現性と透明性を高めるために、ADaMの設計とDefine-XMLでの詳細な記述を重視しています。\n\n**出典:**\n*   [EMA eSubmission](https://www.ema.europa.eu/en/human-regulatory/research-development/electronic-submission/e-submission-human-medicines)\n\n### CDISC標準の更新情報\nCDISCは、新たなユースケースや解析要件に対応するため、標準を継続的に更新しています。\n*   **ADaMIGの更新:** 最新版のADaMIGでは、より複雑な解析デザインや派生変数の定義についてガイダンスが追加されています。PK解析における欠損値の扱い方や、複数の用量群・投与経路におけるパラメータの取り扱いなど、細かな点にも注意が必要です。\n*   **ADaM-PK Supplement:** 非コンパートメント解析 (NCA) で算出されたPKパラメータをADaM形式で表現するための具体的なガイダンスを提供しています。これにより、NCA結果からADaMへのマッピングの標準化が進められています。\n\n**出典:**\n*   [CDISC ADaMIG](https://www.cdisc.org/standards/foundational/adamig)\n*   [CDISC ADaM-PK Supplement](https://www.cdisc.org/standards/therapeutic-areas/pk)\n\n## 日本での対応ポイント：PMDA固有の要件と国内実務\nPMDA (医薬品医療機器総合機構) も、FDA/EMAと協調し、臨床試験データ提出におけるCDISC標準の利用を強く推奨しています。2020年以降は、原則としてSDTMおよびADaM形式でのデータ提出が求められています。\n\n### PMDAの要求事項\n*   **「電磁的記録・電磁的媒体による申請に関する留意事項について」:** この通知により、CDISC標準でのデータ提出が実質的に義務化されています。SDTM、ADaM、Define-XMLの各ファイルの整合性と品質が重視されます。\n*   **データ品質とトレーサビリティ:** PMDAはデータのトレーサビリティを非常に重視します。特にPK ADaMにおいては、どのSDTMデータから、どのようなロジックでPKパラメータが導出されたのかをDefine-XMLで明確に説明する必要があります。\n*   **Define-XMLの重要性:** Define-XMLは、PMDAの審査官が提出されたデータを理解し、確認するための「地図」です。ADaMの派生変数一つ一つについて、その計算ロジック、元のSDTM変数、使用したアルゴリズムなどを詳細に記述することが求められます。SASコードとDefine-XMLの内容が一致していることが非常に重要です。\n\n### FDAとPMDAの要件の違い\n基本的なCDISC標準への準拠という点では両者に大きな違いはありませんが、PMDAは文書や説明の「きめ細かさ」を求める傾向があります。\n\n| 項目         | FDA要件 (傾向)                                        | PMDA要件 (傾向)                                        |\n| :----------- | :---------------------------------------------------- | :----------------------------------------------------- |\n| **標準準拠** | CDISC標準への技術的準拠を重視                        | CDISC標準への技術的準拠に加え、明確な説明資料を重視   |\n| **Define-XML** | 論理的なロジック記述を重視                          | 論理的ロジックに加え、具体的なSASコードや計算式を併記する説明を好む |\n| **トレーサビリティ** | メタデータで原則説明                            | メタデータに加え、必要に応じて別途説明資料を添付することも推奨 |\n| **PK解析**   | ADaM-PK Supplementなどの活用を期待                   | ADaM-PKに加え、日本の実務に合わせた説明が求められることも |\n\n### 国内の実務慣行とアドバイス\n*   **早期からの連携:** CRO (医薬品開発業務受託機関) や製薬企業のPK担当者、データサイエンティスト、統計家は、試験計画の段階からPK ADaMの設計について密接に連携することが成功の鍵です。どのようなPKパラメータが必要か、どのような解析が予定されているかを早期に合意形成することが重要です。\n*   **NCAツールの活用と出力の標準化:** Phoenix WinNonlinなどのNCAツールから出力されるPKパラメータデータを、直接または中間データとしてSDTM-PPやADaMに効率的にマッピングするワークフローを確立しましょう。ツールの出力形式を標準化することで、SASプログラミングの効率が向上します。\n*   **Define-XML作成ツールの活用:** Define-XMLの手動作成は煩雑でエラーの元となりやすいため、Pinnacle 21 EnterpriseやSAS Clinical Standards Toolkitなどのツールを活用して、自動生成・検証を行うことを強く推奨します。これにより、品質と効率を両立できます。\n*   **バリデーションの徹底:** 作成されたADaMデータセットは、Pinnacle 21 Validatorなどのツールを用いて徹底的にバリデーションを行います。エラーや警告を早期に発見し、修正することで、最終的な申請時の手戻りを防ぎます。\n\n## よくあるエラーと対処法：バリデーションの落とし穴\nADaMデータセットの作成は、細かなルールが多く、Pinnacle 21などのバリデーションツールで多くのエラーや警告が発生しがちです。特にPK ADaMにおいてよく見られるエラーとその対処法をいくつか紹介します。\n\n### 1. ADaM変数属性の不一致\n*   **エラー内容:** `ADaMIG` (ADaM Implementation Guide) で定義されている変数名、ラベル、タイプ（文字/数値）、長さ、フォーマットと、実際のデータセットで定義されているものが一致しない。\n*   **発生要因:** コピー＆ペーストミス、手動での変数定義の誤り、ADaMIGの古いバージョンを参照しているなど。\n*   **対処法:**\n    *   必ず最新のADaMIGを参照し、変数定義テーブル (VADAM) を確認します。\n    *   SASプログラムで変数属性を定義する際は、`ATTRIB`ステートメントや`LENGTH`ステートメントを正確に使用します。\n    *   ADaMテンプレートライブラリを作成し、標準的な変数はそこから利用することで一貫性を保ちます。\n\n### 2. Define-XMLとの不整合\n*   **エラー内容:** Define-XMLで記述されている変数の導出ロジックや属性が、実際のADaMデータセットやSASプログラムと一致しない。\n*   **発生要因:** ADaMデータセットの作成後にロジックが変更されたが、Define-XMLが更新されていない。Define-XMLの記述自体に誤りがある。\n*   **対処法:**\n    *   ADaMデータセットの最終版が確定した後にDefine-XMLを作成・更新します。\n    *   可能であれば、SASプログラムからDefine-XMLの一部を自動生成する仕組みを導入します。\n    *   Pinnacle 21 ValidatorはDefine-XMLとデータセットの整合性チェックも行いますので、必ずP21で確認し、エラーを解消します。\n\n### 3. PKパラメータ値の不適切性\n*   **エラー内容:** AUCが負の値になる、CmaxがPCORRESの最大値と一致しない、Tmaxが測定時点の範囲外であるなど、PKパラメータの値に論理的な矛盾がある。\n*   **発生要因:** 元のPCデータに問題がある（欠損値、異常値）、NCAツールの計算設定ミス、SASでの値の取り込みや変換ミス。\n*   **対処法:**\n    *   SDTM.PCデータの品質を十分に確認し、データクリーニングを徹底します。\n    *   NCAツールでの計算ロジックや設定を厳密にレビューします。\n    *   SASでADaMを作成する際に、PKパラメータの妥当性チェック（例：AVALが正の値か、TMAXがPCデータ範囲内かなど）を組み込むことも有効です。\n\n### 4. 欠損値の扱いの不統一\n*   **エラー内容:** 欠損値の表現 (SASの`.`、`.A`など) や、その欠損理由の記述 (ADaM変数 `AVALC`、`DTYPE`など) がADaMIGや試験計画書と異なる。\n*   **発生要因:** 欠損値の取り扱いや表現に関する合意形成が不足している、プログラマーによって実装が異なる。\n*   **対処法:**\n    *   欠損値の取り扱いに関する共通のルール（標準作業手順書: SOP）を確立します。\n    *   `ADaMIG`に沿って、欠損値の種類に応じて適切な `DTYPE` や `AVALC` を使用します。\n    *   例えば、測定下限値 (LLOQ) 未満のデータは、通常、SDTMでは`PCORRES`を欠損とし、`PCSTAT='NOT DONE'`、`PCREAS='BELOW QUANTIFICATION'`などと記載します。ADaMでこれらをどのように扱うか（例: 0に置き換える、特定の欠損コードにする）は、統計解析計画書 (SAP) に明記します。\n\n## よくある質問（FAQ）\n\n### Q1: PK解析ADaMは必ず必要ですか？\n**A1:** はい、多くの規制当局（FDA、PMDAなど）は、統計解析計画書 (SAP) に基づく主要な解析結果を導出するために使用された解析データセット (ADaM) の提出を義務付けています。PK解析も主要な解析の一つであるため、PKパラメータを導出したADaMデータセットは原則として必要となります。これにより、解析の再現性と透明性が確保されます。\n\n### Q2: ADaMのトレーサビリティはどのように担保しますか？\n**A2:** ADaMのトレーサビリティは、主にDefine-XMLファイルを通じて担保されます。Define-XMLには、ADaMの各変数がどのSDTM変数から、どのようなロジック（計算式や条件）で導出されたかを詳細に記述します。また、SASコード内でコメントを活用し、各処理ステップと元のデータとの関連性を明確にすることも重要です。適切な変数ラベルやコメントをSASコードとDefine-XMLの両方で維持することで、審査官が容易にデータの流れを追跡できるようになります。\n\n### Q3: SDTMのPCドメインとADaMのBDSはどう関係しますか？\n**A3:** SDTMのPCドメインは、被験者から採血された時点ごとの薬物濃度測定値とその生データレベルの情報を標準形式で保持します。一方、ADaMのBDS (Basic Data Structure) は、そのPCドメインのデータ、またはNCAツールによって算出されたPKパラメータを、統計解析に直接使用できる形式で整理したものです。具体的には、PCドメインの時系列の濃度データを用いて、CmaxやAUC、TmaxといったPKパラメータがNCAツールで計算され、その結果がADaMのBDSとして、各被験者・各パラメータにつき1レコードの形式で格納されるのが一般的です。ADaMは、SDTMから派生した「解析のための要約データ」と考えると分かりやすいでしょう。\n\n## CDISC実務に役立つリソース\n\nこの記事の内容をさらに深めるために、以下のリソースが役立ちます。\n\n- **[Amazon CDISC書籍](https://www.amazon.co.jp?tag=musclelove07-22)** - CDISC・臨床データ標準の参考書\n- **[Udemy SAS講座](https://www.udemy.com)** - 動画で学ぶCDISC実装\n- **[楽天 医薬品開発書籍](https://www.rakuten.co.jp)** - 製薬・臨床開発の参考書\n\n*上記リンクからご利用いただくと、サイト運営の支援になります。*\n\n\n## まとめ\n本記事では、PK解析（薬物動態解析）におけるCDISC標準（SDTM, ADaM）のワークフローについて、日本の製薬企業やCROの実務担当者向けに解説しました。\n\n*   **CDISC準拠の重要性:** FDAやPMDAへの申請において、SDTMのPC/PPドメイン、そしてそこから派生するPK ADaMデータセットの作成は不可欠です。\n*   **ADaM設計とSASコード:** NCAツールで算出されたPKパラメータを効率的にADaM BDSにマッピングするための具体的なSASコード例と設計思想を示しました。トレーサビリティの確保が鍵です。\n*   **最新動向と国内対応:** FDA/EMAの最新要件やCDISC標準の更新を把握し、PMDAの求めるきめ細かなDefine-XMLの記述や国内実務に合わせた対応が求められます。\n*   **品質保証:** Pinnacle 21などのバリデーションツールを最大限に活用し、エラーや警告を早期に潰すことで、高品質なデータパッケージを規制当局に提出できます。\n\nCDISC標準に則ったPK解析ワークフローの確立は、データの品質向上、審査プロセスの効率化、そして最終的には新薬開発の加速に繋がります。この情報が、皆様の日常業務の一助となれば幸いです。",
  "meta_description": "PK解析（薬物動態）データのCDISC標準SDTM/ADaMへの変換からSASプログラミング、FDA/PMDA申請まで、CROの実務に役立つワークフローと最新トレンドを徹底解説。効率的なデータ作成とバリデーションのヒントも。",
  "tags": [
    "PK解析",
    "薬物動態",
    "ADaM",
    "SDTM",
    "SAS",
    "CRO",
    "CDISCワークフロー"
  ],
  "slug": "pk-analysis-cdisc-sdtm-adam-sas-workflow",
  "faq": [
    {
      "question": "PK解析ADaMは必ず必要ですか？",
      "answer": "はい、多くの規制当局（FDA、PMDAなど）は、統計解析計画書 (SAP) に基づく主要な解析結果を導出するために使用された解析データセット (ADaM) の提出を義務付けています。PK解析も主要な解析の一つであるため、PKパラメータを導出したADaMデータセットは原則として必要となります。これにより、解析の再現性と透明性が確保されます。"
    },
    {
      "question": "ADaMのトレーサビリティはどのように担保しますか？",
      "answer": "ADaMのトレーサビリティは、主にDefine-XMLファイルを通じて担保されます。Define-XMLには、ADaMの各変数がどのSDTM変数から、どのようなロジック（計算式や条件）で導出されたかを詳細に記述します。また、SASコード内でコメントを活用し、各処理ステップと元のデータとの関連性を明確にすることも重要です。適切な変数ラベルやコメントをSASコードとDefine-XMLの両方で維持することで、審査官が容易にデータの流れを追跡できるようになります。"
    },
    {
      "question": "SDTMのPCドメインとADaMのBDSはどう関係しますか？",
      "answer": "SDTMのPCドメインは、被験者から採血された時点ごとの薬物濃度測定値とその生データレベルの情報を標準形式で保持します。一方、ADaMのBDS (Basic Data Structure) は、そのPCドメインのデータ、またはNCAツールによって算出されたPKパラメータを、統計解析に直接使用できる形式で整理したものです。具体的には、PCドメインの時系列の濃度データを用いて、CmaxやAUC、TmaxといったPKパラメータがNCAツールで計算され、その結果がADaMのBDSとして、各被験者・各パラメータにつき1レコードの形式で格納されるのが一般的です。ADaMは、SDTMから派生した「解析のための要約データ」と考えると分かりやすいでしょう。"
    }
  ],
  "hero_emoji": "📝",
  "hero_gradient": "135deg",
  "keyword": "PK解析, 薬物動態, ワークフロー, SDTM, ADaM, CRO, SAS",
  "category": "ADaM設計パターン",
  "generated_at": "2026-04-10T05:26:56.983030",
  "has_affiliate": true,
  "affiliate_count": 3,
  "eyecatch_url": "https://images.unsplash.com/photo-1460925895917-afdab827c52f?w=1200&h=630&fit=crop&auto=format&q=80",
  "eyecatch_credit": "Photo from [Unsplash](https://unsplash.com/)"
}