{
  "title": "PMDA承認審査：臨床データ提出と規制対応ガイド",
  "content": "# PMDA承認審査：臨床データ提出と規制対応の最新ガイド\n\n![PMDA承認審査：臨床データ提出と規制対応ガイド](https://images.unsplash.com/photo-1554224155-6726b3ff858f?w=1200&h=630&fit=crop&auto=format&q=80)\n\n*Photo from [Unsplash](https://unsplash.com/)*\n\n\n## この記事でわかること\n*   PMDA、FDA、EMAへの臨床データ（CDISCデータ）提出要件の全体像\n*   SDTM（Submission Data Tabulation Model）、ADaM（Analysis Data Model）などCDISC標準の基礎と実務での活用法\n*   最新のStudy Data Technical Conformance Guide（SDTCG）に基づく海外の規制動向\n*   日本のPMDA固有の規制対応とFDA要件との違い\n*   承認審査をスムーズに進めるためのバリデーション（検証）とエラー対処のポイント\n\n## 結論から言うと\n承認審査における臨床データ提出では、PMDA、FDAともにCDISC標準（SDTM、ADaM、Define-XML）に準拠した電子データが必須です。特に、海外の規制動向を把握し、Study Data Technical Conformance Guide（SDTCG）の最新要件に対応することが、日本の製薬企業やCROにとって効率的な規制対応の鍵となります。PMDA独自の細かな要件も踏まえ、適切なデータ準備とバリデーションが成功を左右します。\n\n## 臨床データ提出と承認審査における規制対応とは？\n医薬品の承認審査（承認申請時のレビュー）において、規制当局（PMDA、FDA、EMAなど）は治験で収集された臨床データ（臨床試験データ）を電子的に提出するよう求めています。これは、データの透明性、再利用性、比較可能性を高め、審査の効率化と品質向上を図るためです。\n\nこの電子データ提出において中心となるのが、CDISC（Clinical Data Interchange Standards Consortium）データ標準です。CDISC標準には以下のような主要なモデルがあります。\n\n*   **SDTM (Study Data Tabulation Model)**: 症例報告書（CRF）から収集された個々の患者の生データに近い形で標準化されたデータセットです。ドメイン（領域）ごとにデータ構造が定義されており、規制当局が臨床試験データを迅速に理解するための基盤となります。\n*   **ADaM (Analysis Data Model)**: SDTMデータを統計解析に利用しやすいように加工・派生させたデータセットです。解析目的の変数（変数）が定義され、統計解析プログラム（SASプログラムなど）とのトレーサビリティ（追跡可能性）が確保されることが求められます。\n*   **Define-XML**: 提出されるCDISCデータのメタデータ（データの定義情報）をXML形式で記述したファイルです。各データセットの変数名、ラベル（名称）、データ型、コードリスト（用語集）、 derivation method（派生方法）などが詳細に定義されており、規制当局がデータを解釈するために不可欠です。\n*   **Controlled Terminology (CT)**: CDISCデータで使用される用語（例: 投与経路、重症度など）を標準化したリストです。一貫性のあるデータ作成に寄与し、異なる試験間でのデータ比較を容易にします。\n\nこれらのCDISCデータは、eCTD (electronic Common Technical Document) と呼ばれる電子的な申請パッケージの一部として提出されます。eCTDは、申請書類の構成と構造を標準化したもので、各国規制当局が共通して採用しています。\n\n## 実務での使い方・実装手順\n日本の製薬企業やCRO（医薬品開発業務受託機関）が臨床データを規制当局に提出する際の実務手順は、主に以下のステップで構成されます。\n\n### 1. SDTMデータセットの作成\nCRFから得られた生データ（ローデータ）をSDTMIG（SDTM Implementation Guide）に沿ってSDTMデータセット（ドメインデータセット）にマッピング（変換）します。これは通常、SASなどのプログラミング言語を用いて行われます。\n\n```sas\n/* 例: AE (Adverse Events) ドメインの作成 */\nDATA sdtm.ae;\n  SET raw_data.ae_source; /* 生データの取り込み */\n  STUDYID = \"STUDY001\";    /* 試験ID */\n  DOMAIN = \"AE\";         /* ドメイン名 */\n  USUBJID = CATS(STUDYID, \"-\", SUBJID); /* 被験者ユニークID */\n  AETERM = AE_NAME;      /* 有害事象の verbatim term */\n  AESTDTC = PUT(AE_START_DATE, yymmdd10.); /* 有害事象開始日時 (ISO 8601形式) */\n  AEENDTC = PUT(AE_END_DATE, yymmdd10.);   /* 有害事象終了日時 */\n  AEOUT = CASE\n            WHEN AE_OUTCOME = 1 THEN \"RECOVERED/RESOLVED\"\n            WHEN AE_OUTCOME = 2 THEN \"RECOVERING/RESOLVING\"\n            ELSE \"UNKNOWN\"\n          END; /* 有害事象の転帰、CTに準拠 */\n  LABEL AETERM = \"Reported Term for the Adverse Event\";\n  LABEL AESTDTC = \"Start Date/Time of Adverse Event\";\n  LABEL AEENDTC = \"End Date/Time of Adverse Event\";\n  LABEL AEOUT = \"Outcome of Adverse Event\";\nRUN;\n```\nこの際、各変数がCDISC CT（Controlled Terminology）に準拠しているか、また各ドメインの必須変数、条件付き必須変数、オプション変数を適切に設定しているかが重要です。\n\n### 2. ADaMデータセットの作成\nSDTMデータを基に、統計解析計画書（SAP）に記載された解析要件を満たすADaMデータセット（解析データセット）を作成します。ADaMIG（ADaM Implementation Guide）およびADaM OCC（ADaM Oncology Code List）などを参照し、適切な派生変数（派生変数）を定義します。\n\n```sas\n/* 例: BDS (Basic Data Structure) タイプ ADaM データセットの作成 */\nDATA adam.adlb;\n  MERGE sdtm.lb (IN=in_lb)\n        sdtm.dm (IN=in_dm KEEP=USUBJID SEX AGE); /* SDTMのLB, DMドメインをマージ */\n  BY USUBJID;\n  IF in_lb;\n\n  PARAMCD = LBCAT; /* 解析パラメータコード */\n  PARAM = LBCAT_DESC; /* 解析パラメータ名 */\n  AVAL = LBSTRESN; /* 解析値 (数値) */\n  AVALU = LBSTRESU; /* 解析単位 */\n  ANLFL = \"Y\"; /* 解析対象フラグ */\n  TRT01P = TRT_GROUP_PLANNED; /* 計画治療群 */\n  TRT01A = TRT_GROUP_ACTUAL;  /* 実際の治療群 */\n  ADEVCAT = LBTESTCD; /* 解析イベントカテゴリ */\n  ADT = INPUT(LBSTRESN, yymmdd10.); /* 解析日付 */\n\n  LABEL PARAMCD = \"Analysis Parameter Code\";\n  LABEL PARAM = \"Analysis Parameter\";\n  LABEL AVAL = \"Analysis Value\";\n  LABEL ADT = \"Analysis Date\";\nRUN;\n```\nADaMデータセットでは、SDTMデータからのトレース（追跡）が可能であること、および統計解析コード（SASプログラムなど）との連携が容易であることが求められます。\n\n### 3. Define-XMLファイルの作成\n作成したSDTMおよびADaMデータセットのメタデータをDefine-XML（定義ファイル）として出力します。これは通常、専用のツール（例えばPinnacle 21 Community/Enterprise、SAS Clinical Standards Toolkitなど）またはSASプログラムで自動生成されます。Define-XMLは、データセット、変数、コードリスト、派生方法などの詳細情報を含み、当局が提出データを理解するための「地図」の役割を果たします。\n\n### 4. バリデーションの実施\nPinnacle 21などのバリデーションツール（検証ツール）を使用して、作成したCDISCデータとDefine-XMLがCDISC標準および各国のTechnical Conformance Guide（技術適合ガイド）に準拠しているかを確認します。これにより、規制当局への提出前にエラーを特定し修正できます。\n\n### 5. eCTDパッケージの準備\n作成したCDISCデータ（SDTM、ADaM、xPT形式のデータファイル）、Define-XML、各種レビューワーガイド（レビュアーズガイド）、解析プログラムファイルなどをeCTD（電子共通技術文書）の適切なセクションに配置し、電子申請パッケージを作成します。\n\n## 海外の最新動向\nFDA（米国食品医薬品局）とEMA（欧州医薬品庁）は、CDISCデータの電子提出に関して活発な動きを見せています。\n\n### FDAのStudy Data Technical Conformance Guide (SDTCG)\nFDAは定期的にStudy Data Technical Conformance Guide（SDTCG、スタディデータ技術適合ガイド）を更新しており、最新のCDISC標準への対応や新たな要件が盛り込まれます。2023年版のSDTCGでは、CDISC IG（Implementation Guide）の最新バージョン（SDTMIG v3.4, ADaMIG v1.3）の推奨、非臨床データであるSEND（Standard for Exchange of Nonclinical Data）の適用範囲拡大、およびより厳格なバリデーション要件が示されました。\n\n特に重要な点は、SDTMIG v3.4で導入されたFindings About Events（FA）ドメインの適用要件や、ADaMにおける最新のADaMIG v1.3の推奨事項です。これらの更新は、データの標準化レベルをさらに高め、規制当局による審査の効率化を目的としています。\n出典: [FDA Study Data Technical Conformance Guide](https://www.fda.gov/drugs/regulatory-science-research-and-development/study-data-technical-conformance-guide)\n\n### EMAの要件\nEMAはFDAほど詳細なTechnical Conformance Guideを発行していませんが、CDISC標準に準拠した電子データ提出を強く推奨しています。特に、2025年以降の臨床試験データ提出にはCDISC標準への準拠が事実上必須となる見込みです。EMAは、CDISC標準を採用することで、国際的なデータ交換と審査プロセスの一貫性が向上すると考えています。\n出典: [EMA HMA CDISC guidance for industry](https://www.ema.europa.eu/en/documents/other/hma-cdisc-guidance-industry-sponsors_en.pdf)\n\n### CDISC標準の更新\nCDISC自体も定期的に各IGを更新しています。例えば、SDTMIG v3.4では、COVID-19パンデミックに対応するための新しいドメインや変数、そして既存ドメインの強化が含まれています。これらの更新情報は、CDISCのウェブサイトで確認できます。最新のIGに準拠することは、グローバルな承認審査において非常に重要です。\n\n## 日本での対応ポイント\nPMDA（医薬品医療機器総合機構）も、FDAと同様にCDISCデータによる電子提出を求めており、日本の製薬企業やCROはこの要件への対応が不可欠です。\n\n### PMDAの電子データ提出要件\nPMDAは、2016年10月以降の承認申請（一部を除く）において、CDISC標準に準拠した臨床データの電子提出を義務化しています。PMDA独自の「電子データ提出に関する技術的要件」（PMDA TCG）があり、FDAのSDTCGと多くの共通点があるものの、細かな違いが存在します。\n\n**PMDAとFDAの電子データ提出要件の比較**\n\n| 項目             | PMDA                                         | FDA                                         |\n| :--------------- | :------------------------------------------- | :------------------------------------------ |\n| **対象**         | 2016年10月以降の承認申請（一部例外あり）       | 2016年12月17日以降の新薬申請（NDA/BLA）      |\n| **CDISC標準**    | SDTMIG, ADaMIG, Define-XML, CDISC CTに準拠     | SDTMIG, ADaMIG, Define-XML, CDISC CTに準拠     |\n| **Define-XML**   | バージョン2.0を推奨、2.1も許容。日本語メタデータは必須ではないが推奨 | バージョン2.0を推奨、2.1も許容。英語メタデータが必須 |\n| **バリデーションツール** | Pinnacle 21を推奨。PMDA独自のチェック項目も追加 | Pinnacle 21を必須レベルで推奨               |\n| **レビューワーガイド** | 必須。日本語での記述が望ましい               | 必須。英語での記述が必須                  |\n| **その他**       | CDISCデータの提出はeCTDの「5.3.5.3」に格納     | CDISCデータの提出はeCTDの「5.3.5.3」に格納     |\n\nPMDAではDefine-XMLの日本語メタデータは必須ではありませんが、レビューワーが理解しやすいように、主要なラベル等に日本語を付与することが推奨されます。また、PMDAは自機関で実施しているバリデーションチェックリストを公開しており、Pinnacle 21の出力結果と合わせて確認することが重要です。\n出典: [PMDA 医薬品の承認申請における電子データ提出について](https://www.pmda.go.jp/review-services/drug-reviews/0002.html)\n\n### 日本の実務へのアドバイス\n日本の製薬企業やCROは、海外の最新動向を常にキャッチアップしつつ、PMDA固有の要件を正確に理解して対応することが求められます。\n1.  **早期からのCDISC対応:** 治験開始前の段階からSDTMマッピングルールを策定し、CDISC準拠を意識したデータ収集計画を立てることが重要です。\n2.  **バリデーションの徹底:** Pinnacle 21などのツールだけでなく、PMDAが公開するチェック項目も考慮した上で、多角的なバリデーションを徹底しましょう。これにより、承認審査での指摘事項を減らし、審査期間の短縮につながります。\n3.  **Define-XMLの品質向上:** Define-XMLは、規制当局が提出データを理解するための最も重要なドキュメントです。変数名、ラベル、データ型、コードリスト、派生方法の記述が正確かつ網羅的であることを確認してください。特に、派生変数のロジックは詳細に記述し、再現性を確保することが重要です。\n\n## よくあるエラーと対処法\nPinnacle 21などのバリデーションツールは、CDISCデータ提出時のエラーを特定する上で非常に強力です。ここでは、よくあるエラーとその対処法をいくつかご紹介します。\n\n### 1. SDTM/ADaM バリデーションエラー\n*   **SD0002: Missing required variable (必須変数の欠損)**\n    *   **エラー内容:** ドメインにおいて必須とされている変数が欠損している。\n    *   **対処法:** SDTMIGまたはADaMIGを参照し、該当するドメインの必須変数をすべてデータセットに含める。変数が存在しない場合は、理由コード（Reason for No Data）などを用いて説明する必要があります。\n*   **SD0015: Value not found in Controlled Terminology (CTに値が見つからない)**\n    *   **エラー内容:** 特定の変数の値がCDISC Controlled Terminology（統制用語集）に定義されていない。\n    *   **対処法:** CDISC CT（またはFDA/PMDAが公開するCT）を参照し、適切な用語に修正する。カスタム用語を使用する場合は、Define-XMLにUser-defined Codelist（ユーザー定義コードリスト）として明確に定義し、適切に参照されるようにします。\n*   **AD0001: Missing required variable for ADaM (ADaM必須変数の欠損)**\n    *   **エラー内容:** ADaMデータセットにおいて必須とされている変数が欠損している。\n    *   **対処法:** ADaMIGを参照し、ADSL（Subject-Level Analysis Dataset）やBDS（Basic Data Structure）などの必須変数をすべて含める。\n\n### 2. Define-XML バリデーションエラー\n*   **Define-XML-001: Dataset not found (データセットが見つからない)**\n    *   **エラー内容:** Define-XMLで定義されているデータセットが、実際に提出されたフォルダ内に存在しない。\n    *   **対処法:** Define-XMLに記載されているデータセットファイル名と、実際に提出するファイル名が完全に一致しているか確認する。パスも正確か確認。\n*   **Define-XML-002: Variable not found in Dataset (データセットに変数が存在しない)**\n    *   **エラー内容:** Define-XMLで定義されている変数が、対応するデータセット内に存在しない。\n    *   **対処法:** Define-XMLとデータセットの変数のスペル、大文字小文字が完全に一致しているか確認する。あるいは、データセットにない不要な変数がDefine-XMLに定義されていないか確認。\n\n### 3. その他のTips\n*   **早期にバリデーション:** データ作成の各フェーズ（SDTM、ADaM）で定期的にバリデーションを実行し、問題の早期発見・早期解決を心がけましょう。\n*   **エラーレポートの活用:** Pinnacle 21のエラーレポートは非常に詳細です。レポートを丁寧に読み込み、エラーの原因を特定し、修正後は必ず再バリデーションを行ってください。\n*   **ガイドラインの熟読:** CDISC IG、Technical Conformance Guide、およびPMDAのガイダンスを熟読し、疑問点を解消することが最も重要です。\n\n## よくある質問（FAQ）\n\n### Q1: PMDAとFDAでCDISC提出要件に大きな違いはありますか？\n**A1:** 基本的なCDISC標準への準拠は共通していますが、細かな点で違いがあります。例えば、Define-XMLにおける日本語メタデータはPMDAでは推奨ですがFDAでは必須ではありません（英語が必須）。また、PMDAは独自のバリデーションチェックリストを公開しており、FDAのSDTCGとは一部異なります。両方の要件を理解し、それぞれに対応したデータ準備が必要です。\n\n### Q2: 古いバージョンのCDISC IGで作成されたデータは提出できますか？\n**A2:** 規制当局は一般的に、承認申請時の最新のCDISC IGバージョンへの準拠を推奨しますが、治験が開始された時点のIGバージョンでの提出も許容される場合があります。ただし、最新版へのアップデートを求められる可能性もあるため、治験開始前に当局と協議し、どのバージョンのIGを使用するかを合意しておくことが望ましいです。特に、FDAのSDTCGにはサポートされるIGの最小バージョンが明記されています。\n\n### Q3: Define-XMLの作成は手動で行う必要がありますか？\n**A3:** いいえ、通常は手動で作成することはありません。SAS Clinical Standards Toolkit、Pinnacle 21 Enterprise/Community、またはその他のCDISC準拠ツールを使用して、SDTM/ADaMデータセットからDefine-XMLを自動生成するのが一般的です。手動での作成は、非常に時間がかかり、ヒューマンエラーのリスクも高いため推奨されません。自動生成されたDefine-XMLをレビューし、不足している情報（派生方法の詳細など）を追加・修正する作業が中心となります。\n\n### Q4: PMDAへの電子データ提出は、どのような形式で行うのですか？\n**A4:** PMDAへの電子データ提出は、eCTD（electronic Common Technical Document）形式で行われます。CDISCデータセット（xPT形式）、Define-XML、レビューワーガイドなどの関連文書は、eCTDの「5.3.5.3」セクションに格納されます。eCTDは、専用のパブリッシングツールを用いて作成され、PMDAの電子申請システムを通じて提出されます。\n\n## CDISC実務に役立つリソース\n\nこの記事の内容をさらに深めるために、以下のリソースが役立ちます。\n\n- **[Amazon CDISC書籍](https://www.amazon.co.jp?tag=musclelove07-22)** - CDISC・臨床データ標準の参考書\n- **[Udemy SAS講座](https://www.udemy.com)** - 動画で学ぶCDISC実装\n- **[楽天 医薬品開発書籍](https://www.rakuten.co.jp)** - 製薬・臨床開発の参考書\n\n*上記リンクからご利用いただくと、サイト運営の支援になります。*\n\n\n## まとめ\n本記事では、承認審査におけるPMDA、FDAへの臨床データ提出と規制対応の最新動向について解説しました。CDISC標準（SDTM、ADaM、Define-XML、CT）への準拠は、国際的な医薬品開発において不可欠な要件です。\n\n海外のStudy Data Technical Conformance Guide（SDTCG）の最新情報をキャッチアップし、PMDA独自の要件を正確に理解することが、規制対応を成功させる鍵となります。Pinnacle 21などのバリデーションツールを効果的に活用し、データ品質の向上に努めましょう。\n\nCDISC Standards Navigatorは、今後も皆様の実務に役立つ情報を提供してまいります。ご質問やご意見がございましたら、お気軽にお寄せください。\n",
  "meta_description": "PMDA承認審査における臨床データ提出と規制対応の最新ガイド。FDA/PMDAのCDISC要件、eCTD、SDTCG、バリデーションのポイントを解説し、日本の実務に役立つ情報を提供します。",
  "tags": [
    "承認審査",
    "PMDA",
    "臨床データ提出",
    "規制対応",
    "CDISC"
  ],
  "slug": "pmda-clinical-data-submission-regulatory-compliance-guide",
  "faq": [
    {
      "question": "PMDAとFDAでCDISC提出要件に大きな違いはありますか？",
      "answer": "基本的なCDISC標準への準拠は共通していますが、細かな点で違いがあります。例えば、Define-XMLにおける日本語メタデータはPMDAでは推奨ですがFDAでは必須ではありません（英語が必須）。また、PMDAは独自のバリデーションチェックリストを公開しており、FDAのSDTCGとは一部異なります。両方の要件を理解し、それぞれに対応したデータ準備が必要です。"
    },
    {
      "question": "古いバージョンのCDISC IGで作成されたデータは提出できますか？",
      "answer": "規制当局は一般的に、承認申請時の最新のCDISC IGバージョンへの準拠を推奨しますが、治験が開始された時点のIGバージョンでの提出も許容される場合があります。ただし、最新版へのアップデートを求められる可能性もあるため、治験開始前に当局と協議し、どのバージョンのIGを使用するかを合意しておくことが望ましいです。特に、FDAのSDTCGにはサポートされるIGの最小バージョンが明記されています。"
    },
    {
      "question": "Define-XMLの作成は手動で行う必要がありますか？",
      "answer": "いいえ、通常は手動で作成することはありません。SAS Clinical Standards Toolkit、Pinnacle 21 Enterprise/Community、またはその他のCDISC準拠ツールを使用して、SDTM/ADaMデータセットからDefine-XMLを自動生成するのが一般的です。手動での作成は、非常に時間がかかり、ヒューマンエラーのリスクも高いため推奨されません。自動生成されたDefine-XMLをレビューし、不足している情報（派生方法の詳細など）を追加・修正する作業が中心となります。"
    },
    {
      "question": "PMDAへの電子データ提出は、どのような形式で行うのですか？",
      "answer": "PMDAへの電子データ提出は、eCTD（electronic Common Technical Document）形式で行われます。CDISCデータセット（xPT形式）、Define-XML、レビューワーガイドなどの関連文書は、eCTDの「5.3.5.3」セクションに格納されます。eCTDは、専用のパブリッシングツールを用いて作成され、PMDAの電子申請システムを通じて提出されます。"
    }
  ],
  "hero_emoji": "📝",
  "hero_gradient": "135deg",
  "keyword": "承認審査, PMDA, 臨床データ提出, 規制対応",
  "category": "規制当局対応",
  "generated_at": "2026-04-11T04:54:56.656861",
  "has_affiliate": true,
  "affiliate_count": 3,
  "eyecatch_url": "https://images.unsplash.com/photo-1554224155-6726b3ff858f?w=1200&h=630&fit=crop&auto=format&q=80",
  "eyecatch_credit": "Photo from [Unsplash](https://unsplash.com/)"
}