{
  "title": "臨床データの承認申請：PMDA・FDA規制提出のすべて",
  "content": "# 臨床データの承認申請：PMDA・FDA規制提出のすべて\n\n![臨床データの承認申請：PMDA・FDA規制提出のすべて](https://images.unsplash.com/photo-1554224155-6726b3ff858f?w=1200&h=630&fit=crop&auto=format&q=80)\n\n*Photo from [Unsplash](https://unsplash.com/)*\n\n\n皆さん、こんにちは！CDISC Standards NavigatorのベテランSASプログラマーです。今回は、日本の製薬企業やCROの実務担当者にとって避けて通れない、**PMDA**（医薬品医療機器総合機構）や**FDA**（米国食品医薬品局）への**臨床データ**の**承認申請**と**規制提出**について、最新動向と実践的なアドバイスをお届けします。CDISC（Clinical Data Interchange Standards Consortium）データ標準に準拠した電子提出は、もはやグローバルな**承認申請**において必須要件となっています。\n\n## この記事でわかること\n\n*   PMDAとFDA、両規制当局への**臨床データ**電子提出の全体像と最新要件\n*   CDISCデータ標準（SDTM、ADaM、Define-XML、CT）の重要性と実務での活用法\n*   eCTD（electronic Common Technical Document）を通じたデータ提出の具体的なステップとSASコード例\n*   海外の規制動向（FDA/EMA）とPMDA要件の違い、日本での対応ポイント\n*   バリデーションエラーのよくある原因と効果的な対処法\n\n## 結論から言うと\n\n**臨床データ**の**承認申請**には、**FDA**および**PMDA**ともにCDISCデータ標準に準拠した電子提出が必須です。特に、最新のStudy Data Technical Conformance Guide (SDTCG) や各当局の電子提出ガイドラインを熟読し、Pinnacle 21などのバリデーションツールを開発の早期段階から活用することが、スムーズな**規制提出**と承認取得の鍵となります。常に海外の最新動向を把握し、日本の実務に落とし込む視点が成功には不可欠です。\n\n## 臨床データの承認申請・規制提出とは？\n\n医薬品や医療機器が承認され、患者さんのもとに届けられるためには、その安全性と有効性を示す**臨床データ**を、各国の**規制当局**（日本ではPMDA、米国ではFDA）に提出し、審査を受ける必要があります。かつては紙媒体での提出が主流でしたが、IT技術の進歩に伴い、現在では電子データでの提出が世界的に義務化、または強く推奨されています。\n\nこの電子データ提出において中心的な役割を果たすのが、**CDISCデータ標準**です。CDISCは、**臨床データ**の収集、交換、提出、アーカイブの方法に関する国際的な標準を開発する非営利団体です。CDISC標準を用いることで、データの一貫性が保たれ、**規制当局**の審査効率が向上し、結果として新薬がより早く患者さんに届くことに貢献します。\n\n主要なCDISC標準には以下のものがあります。\n\n*   **SDTM** (Study Data Tabulation Model): 症例報告書 (CRF) や電子データキャプチャ (EDC) で収集された個々の被験者レベルの生データ（あるいはそれに近い詳細なデータ）を標準化するためのモデルです。例えば、被験者の背景情報、有害事象、併用薬、検査値などがSDTMドメインとして構造化されます。\n*   **ADaM** (Analysis Data Model): 統計解析を行うためのデータセットのモデルです。SDTMデータから統計解析に必要な変数を抽出し、解析可能な形式に加工することで、解析の再現性と透明性を高めます。\n*   **Define-XML**: SDTMやADaMデータセットの構造、変数、ロジック、Controlled Terminology（管理用語）などを機械可読なXML形式で記述したメタデータです。**規制当局**が提出されたデータを理解するために不可欠な「データの辞書」のようなものです。\n*   **CT** (Controlled Terminology): CDISCが管理する標準的な用語集です。性別、投与経路、疾患名、評価項目など、多くの項目において特定の用語を使用することで、データの一貫性と解釈の正確性を保証します。\n\nこれらの標準に従って作成されたデータセットは、通常、**eCTD**（electronic Common Technical Document）という国際的な電子申請フォーマットの一部として**規制当局**に提出されます。eCTDは、申請資料全体を構造化し、電子的に提出するための枠組みであり、**臨床データ**はその中で「Module 4（非臨床試験の概要）」「Module 5（臨床試験の概要）」として位置づけられます。\n\n## 実務での使い方・実装手順\n\n実際に**臨床データ**を**PMDA**や**FDA**へ**規制提出**する際の、SDTMやADaM、Define-XMLの作成、およびバリデーションのステップは以下のようになります。\n\n1.  **SDTMデータセットの作成**: 収集された生データ（例：EDCデータ）をSDTMIG (Implementation Guide) に従ってSDTMドメインにマッピングします。この工程が**臨床データ**標準化の基盤となります。\n2.  **ADaMデータセットの作成**: SDTMデータから、統計解析計画書 (SAP) に基づいて解析に特化したADaMデータセットを作成します。これには、統計解析に必要な変数の導出や、解析に合わせたデータ構造の変更などが含まれます。\n3.  **Define-XMLの作成**: 作成したSDTM、ADaMデータセットの構造、変数属性、導出ロジック、使用したCTなどをDefine-XMLとして記述します。これは手動で作成することも可能ですが、通常は専用ツールやSASプログラムで自動生成されます。\n4.  **Controlled Terminology（CT）の適用**: SDTMやADaMデータセットで使用される全てのコードや用語が、最新のCDISC CTに準拠しているか確認し、必要に応じてマッピングまたは変換します。\n5.  **バリデーションの実施**: Pinnacle 21などの専用ツールを用いて、作成したSDTM、ADaM、Define-XMLデータセットがCDISC標準および**規制当局**の技術的要件に準拠しているかを確認します。このステップは早期から繰り返し実施することが非常に重要です。\n6.  **eCTDへのパッケージング**: CDISCデータセットおよび関連するドキュメント（CRF、プロトコル、統計解析計画書など）をeCTDの指定されたディレクトリ構造に配置し、申請パッケージを完成させます。\n\n### SASコード例：SDTM.AE（有害事象）ドメインの作成\n\nここでは、一般的な有害事象の生データから、SDTMのAEドメインの一部を作成する簡単なSASコード例をご紹介します。実際のプロジェクトではより複雑なロジックが必要となりますが、基本的な考え方は同じです。\n\n```sas\ndata raw_ae;\n  infile datalines dlm=',';\n  input SUBJID $ AETERM $ AESTDAT date9. AESER $ AE_CAUSAL_REL $;\n  format AESTDAT yymmdd10.;\ndatalines;\n001,Headache,2023-01-10,N,POSSIBLE\n002,Nausea,2023-01-15,Y,PROBABLE\n001,Fever,2023-01-12,Y,DEFINITE\n003,Dizziness,2023-01-20,N,NOT RELATED\n;\n\ndata sdtm.ae;\n  set raw_ae;\n  /* SDTM Required Variables */\n  STUDYID = 'STUDY001'; /* 試験ID */\n  DOMAIN = 'AE';       /* ドメイン名 */\n  USUBJID = catx('-', STUDYID, SUBJID); /* ユニーク被験者ID */\n  AETERM = AETTER;     /* 報告された有害事象名 */\n  AESTDTC = put(AESTDAT, yymmddn8.); /* 有害事象開始日時 (ISO 8601形式) */\n  AESER = upcase(strip(AESER)); /* 重篤性 'Y' or 'N' */\n  /* Conditional Variables & Mapping */\n  if AESER = 'Y' then AESER = 'Y'; /* Y/Nをそのまま使用 */\n  else if AESER = 'N' then AESER = 'N';\n  else AESER = ''; /* 不明な場合は空白 */\n\n  /* Additional Mapping for Causal Relationship (Example) */\n  if upcase(strip(AE_CAUSAL_REL)) = 'DEFINITE' then AECRLT = 'DEFINITELY RELATED';\n  else if upcase(strip(AE_CAUSAL_REL)) = 'PROBABLE' then AECRLT = 'PROBABLY RELATED';\n  else if upcase(strip(AE_CAUSAL_REL)) = 'POSSIBLE' then AECRLT = 'POSSIBLY RELATED';\n  else if upcase(strip(AE_CAUSAL_REL)) = 'NOT RELATED' then AECRLT = 'NOT RELATED';\n  else AECRLT = ''; /* その他の場合は空白 */\nrun;\n\n## CDISC実務に役立つリソース\n\nこの記事の内容をさらに深めるために、以下のリソースが役立ちます。\n\n- **[Amazon CDISC書籍](https://www.amazon.co.jp?tag=musclelove07-22)** - CDISC・臨床データ標準の参考書\n- **[Udemy SAS講座](https://www.udemy.com)** - 動画で学ぶCDISC実装\n- **[楽天 医薬品開発書籍](https://www.rakuten.co.jp)** - 製薬・臨床開発の参考書\n\n*上記リンクからご利用いただくと、サイト運営の支援になります。*\n",
  "hero_emoji": "📝",
  "hero_gradient": "135deg",
  "meta_description": "臨床データの承認申請：PMDA・FDA規制提出のすべて\n\n皆さん、こんにちは！CDISC Standards NavigatorのベテランSASプログラマーです。今回は、日本の製薬企業やCROの実務担当者にとって避けて通れない、PMDA（",
  "tags": [
    "自動生成",
    "ブログ",
    "記事",
    "SEO",
    "最新"
  ],
  "slug": "pmdafda",
  "keyword": "承認申請, 規制提出, PMDA, FDA, 臨床データ",
  "category": "規制当局対応",
  "generated_at": "2026-04-15T05:23:28.332977",
  "has_affiliate": true,
  "affiliate_count": 3,
  "eyecatch_url": "https://images.unsplash.com/photo-1554224155-6726b3ff858f?w=1200&h=630&fit=crop&auto=format&q=80",
  "eyecatch_credit": "Photo from [Unsplash](https://unsplash.com/)"
}