{
  "title": "承認審査を加速！PMDA・FDA臨床データ提出の秘訣",
  "content": "# 承認審査を加速！PMDA・FDA臨床データ提出の秘訣\n\n![承認審査を加速！PMDA・FDA臨床データ提出の秘訣](https://images.unsplash.com/photo-1589829545856-d10d557cf95f?w=1200&h=630&fit=crop&auto=format&q=80)\n\n*Photo from [Unsplash](https://unsplash.com/)*\n\n\nCDISC Standards Navigatorへようこそ！今回は、医薬品の承認審査において避けて通れない、臨床データ提出に関する国内外の規制当局（特にPMDAとFDA）の最新動向と、CDISC（Clinical Data Interchange Standards Consortium）標準を適用した効率的なデータ作成・提出のポイントを、ベテランSASプログラマーの視点から深掘りしていきます。臨床データの承認審査における電子提出は、グローバルではCDISC標準が事実上の必須であり、PMDAも推奨していますが、将来的な義務化を見据え、今からFDAの要件を参考に準備を進めることが非常に重要です。\n\n## この記事でわかること\n*   FDAとPMDAの臨床データ提出要件の最新トレンドと具体的な違い\n*   CDISC標準（SDTM, ADaM, Define-XML, CT）の具体的な実装手順とSASコード例\n*   海外規制当局（FDA, EMA）の最新ガイドラインと日本の実務への落とし込み方\n*   データバリデーション（検証）時のよくあるエラーとその対処法\n*   承認審査をスムーズに進めるための実践的なアドバイス\n\n## 結論から言うと\n医薬品の承認審査において、規制当局への臨床データ提出はCDISC標準に準拠した電子データ提出が世界の主流です。特にFDAはSDTM（Study Data Tabulation Model）やADaM（Analysis Data Model）の提出を義務化しており、PMDAもこれを推奨しています。グローバル開発を行う上では、FDAの最新要件をベンチマークとして、正確なCDISCデータセットとDefine-XMLの作成、そして厳格なバリデーションが成功の鍵を握ります。\n\n## 承認審査における臨床データ提出とは？\n新薬の承認を得るためには、医薬品開発の各段階で得られた膨大な臨床試験データを規制当局（日本ではPMDA、米国ではFDA）に提出し、その有効性や安全性を評価してもらう必要があります。かつては紙媒体での提出が主流でしたが、現在はデータの信頼性、アクセシビリティ、再利用性を高めるために、電子データでの提出が世界標準となっています。\n\nこの電子データ提出において中心的な役割を果たすのが、CDISC標準です。CDISC標準は、臨床試験データを一貫した形式で収集、交換、提出するための国際的な標準であり、これにより規制当局は提出されたデータを効率的に審査し、その品質を保証することができます。主要なCDISC標準には以下のものがあります。\n\n*   **SDTM (Study Data Tabulation Model):** 症例報告書（CRF）から収集された個々の患者データを、疾患領域や試験の種類に関わらず標準的な形式で整理するためのモデルです。\n*   **ADaM (Analysis Data Model):** SDTMデータを基に、統計解析を行うために必要なデータ（例: 解析対象集団、有効性評価項目、安全性評価項目など）を標準的な形式で整理するためのモデルです。\n*   **Define-XML (Data Definition Document in XML):** 提出されたSDTMやADaMデータセットの構造や内容、変数定義、Controlled Terminology（管理用語集）などを機械判読可能なXML形式で記述したドキュメントです。規制当局がデータセットを理解するために不可欠です。\n*   **Controlled Terminology (CT):** 臨床試験で使用される用語（例: 検査項目名、治療法、副作用の種類）を標準化するための用語集です。SDTMやADaMの特定変数で使用が義務付けられています。\n\nこれらのCDISC標準に準拠したデータは、eCTD (electronic Common Technical Document: 医薬品の承認申請を電子的に行うための国際的な共通様式) と呼ばれる枠組みの中で規制当局に提出されます。eCTDは、申請資料全体の電子的な構成を定めており、臨床データはその一部として組み込まれます。\n\n## 実務での使い方・実装手順\nCDISC標準に準拠した臨床データを作成し、規制当局に提出するまでの一般的なステップを、SASプログラマーの視点から解説します。\n\n### ステップ1: SDTMデータセットの作成\nSDTMデータセットは、生データ（Raw Data）やCRFデータから、CDISC SDTM Implementation Guide (IG) に従って変換されます。これは、データ提出の最初のステップであり、最も労力のかかる作業の一つです。\n\n```sas\n/* 例1: RawデータからSDTM DM (Demographics) ドメインを生成するSASコードの概念 */\nDATA sdtm.dm;\n  SET raw.demographics; /* 生の被験者基本情報データ */\n\n  /* STUDYID, USUBJID, DOMAIN は必須変数 */\n  STUDYID = 'ABC001'; /* 治験識別子 */\n  USUBJID = CATS(STUDYID, '-', SITEID, '-', SUBJID); /* ユニークな被験者識別子 */\n  DOMAIN = 'DM'; /* ドメイン略称 */\n\n  /* RawデータをSDTM変数へマッピング・変換 */\n  SUBJID = input(SUBJID_RAW, 8.); /* 生データから変換、必要に応じてフォーマット調整 */\n  SITEID = input(SITEID_RAW, 8.); /* 治験実施施設識別子 */\n  RFSTDTC = PUT(TRT_START_DATE, IS8601DA.); /* 治験参加開始日時 (ISO 8601形式) */\n  RFENDTC = PUT(TRT_END_DATE, IS8601DA.);   /* 治験参加終了日時 */\n\n  /* Controlled Terminology (CT) への準拠が求められる変数 */\n  RACE = UPCASE(RACE_RAW); /* CDISC CT (例: WHITE, ASIAN, BLACK OR AFRICAN AMERICAN) に準拠 */\n  IF RACE_RAW = '白人' THEN RACE = 'WHITE';\n  ELSE IF RACE_RAW = '日本人' THEN RACE = 'ASIAN';\n  ELSE IF RACE_RAW = 'その他' THEN RACE = 'OTHER'; /* CTにない場合はOTHERなどを設定、SUPPDMで詳細化も検討 */\n\n  SEX = UPCASE(GENDER_RAW); /* CDISC CT (F, M, U, UNDIFFERENTIATED) に準拠 */\n  IF SEX = 'MALE' THEN SEX = 'M';\n  ELSE IF SEX = 'FEMALE' THEN SEX = 'F';\n\n  BRTHDTC = PUT(BIRTH_DATE, IS8601DA.); /* 誕生日 (ISO 8601形式 YYYY-MM-DD) */\n  AGE = INT((INTNX('MONTH', &SYSDATE, 0, 'S') - BIRTH_DATE) / 365.25); /* 年齢計算 */\n\n  /* 変数ラベルの設定 */\n  LABEL\n    STUDYID = \n\n## CDISC実務に役立つリソース\n\nこの記事の内容をさらに深めるために、以下のリソースが役立ちます。\n\n- **[Amazon CDISC書籍](https://www.amazon.co.jp?tag=musclelove07-22)** - CDISC・臨床データ標準の参考書\n- **[Udemy SAS講座](https://www.udemy.com)** - 動画で学ぶCDISC実装\n- **[楽天 医薬品開発書籍](https://www.rakuten.co.jp)** - 製薬・臨床開発の参考書\n\n*上記リンクからご利用いただくと、サイト運営の支援になります。*\n",
  "hero_emoji": "📝",
  "hero_gradient": "135deg",
  "meta_description": "承認審査を加速！PMDA・FDA臨床データ提出の秘訣\n\nCDISC Standards Navigatorへようこそ！今回は、医薬品の承認審査において避けて通れない、臨床データ提出に関する国内外の規制当局（特にPMDAとFDA）の最新動向",
  "tags": [
    "自動生成",
    "ブログ",
    "記事",
    "SEO",
    "最新"
  ],
  "slug": "pmdafda",
  "keyword": "承認審査, 臨床データ提出, 規制当局, PMDA, FDA",
  "category": "規制当局対応",
  "generated_at": "2026-04-22T05:25:33.092230",
  "has_affiliate": true,
  "affiliate_count": 3,
  "eyecatch_url": "https://images.unsplash.com/photo-1589829545856-d10d557cf95f?w=1200&h=630&fit=crop&auto=format&q=80",
  "eyecatch_credit": "Photo from [Unsplash](https://unsplash.com/)"
}