{
  "title": "MIDDで加速！オンコロジー用量選択とADaM解析：日米欧規制当局の最新動向",
  "content": "# MIDDで加速！オンコロジー用量選択とADaM解析：日米欧規制当局の最新動向\n\n![MIDDで加速！オンコロジー用量選択とADaM解析：日米欧規制当局の最新動向](https://images.unsplash.com/photo-1554224155-6726b3ff858f?w=1200&h=630&fit=crop&auto=format&q=80)\n\n*Photo from [Unsplash](https://unsplash.com/)*\n\n\n## この記事でわかること\n*   MIDD（Model-Informed Drug Development）がオンコロジー領域の用量選択にどのように貢献するのか理解できます。\n*   ADaM（Analysis Data Model）データセットをMIDD解析に活用するための具体的なSASコード例と実装手順を習得できます。\n*   FDA、EMA、PMDAにおけるMIDDへの期待と、電子データ提出（CDISC準拠）の最新要件および違いを把握できます。\n*   電子データ提出時に遭遇しやすいバリデーションエラーとその対処法を学ぶことができます。\n\n## 結論から言うと\nオンコロジー領域における用量選択の効率化と開発期間短縮のために、MIDD（Model-Informed Drug Development）の活用が国内外の規制当局から強く推奨されています。このMIDDを支える臨床データ解析には、CDISC ADaM（Analysis Data Model）に準拠した解析データセットの構築が不可欠であり、FDA、EMA、PMDAともにその電子データ提出を求めています。各規制当局の要件を理解し、適切なADaMデータを提出することが、承認プロセスを円滑に進める鍵となります。\n\n## MIDDとは？：オンコロジー・用量選択における臨床データ解析の重要性\n\n医薬品開発において、適切な用量を選択することは、治療効果の最大化と副作用のリスク低減のために極めて重要です。特にオンコロジー（がん領域）では、個々の患者さんの状態や薬剤の特性が多岐にわたるため、単一の用量で最適な効果を得ることは困難な場合があります。ここで注目されているのが、**MIDD（Model-Informed Drug Development：モデル駆動型医薬品開発）**です。MIDDは、既存の臨床データ、非臨床データ、そして薬物動態（PK）や薬力学（PD）などの情報に基づいた数理モデルを活用し、治験のデザイン、用量選択、そして規制当局とのコミュニケーションをより科学的に、効率的に進めるアプローチを指します。\n\n### 用量選択とMIDDの役割\n\n用量選択プロセスでは、通常、複数の用量を設定した臨床試験を実施し、その結果に基づいて最適な用量を決定します。しかし、これは時間とコストがかかる上に、必ずしも最適な用量が見つかるとは限りません。MIDDを用いることで、以下のようなメリットが得られます。\n\n1.  **早期の用量最適化:** 非臨床データや初期臨床試験データから構築したモデルを用いて、その後の臨床試験で検討すべき用量範囲をより適切に絞り込むことができます。これにより、無駄な用量設定試験を減らし、開発期間を短縮できます。\n2.  **個別化医療への貢献:** 患者背景（年齢、体重、腎機能、肝機能など）や遺伝子多型などの情報をモデルに組み込むことで、個々の患者さんに最適な用量を予測し、個別化医療の推進に役立てることができます。\n3.  **規制当局との対話促進:** モデルを用いた客観的なデータ提示は、規制当局（FDA、PMDAなど）との科学的対話を促進し、より説得力のある承認申請を可能にします。\n\nオンコロジー領域では、特に治療ウィンドウが狭く、副作用管理が重要なため、MIDDは極めて有用なツールとなり得ます。例えば、特定のバイオマーカーの発現状況や、併用薬の影響などをモデルに組み込み、最適な治療戦略を検討することが可能です。\n\n## 実務でのADaM実装手順とSASコード例\n\nMIDDを実施するためには、質の高い臨床データ解析が不可欠であり、その基盤となるのがCDISC ADaM（Analysis Data Model：解析データモデル）です。ADaMは、統計解析や臨床試験報告書作成のためのデータセットを標準化するもので、規制当局への電子データ提出時に必須とされています。\n\n### オンコロジー領域での用量反応解析とADaM\n\nオンコロジー領域におけるMIDDでは、薬物曝露量（例：AUC, Cmax）と臨床効果（例：腫瘍縮小率、無増悪生存期間）や副作用発生率との関係（曝露-反応関係）をモデル化することがよく行われます。この解析のために、薬物動態（PK）データと薬力学（PD）データを統合し、被験者ごとの曝露量を計算し、それを解析しやすい形式に整理する必要があります。ADaMでは、このようなPK/PD解析に特化したADaMデータセット（例：ADPC - Pharmacokinetic Concentration Data、ADPP - Pharmacokinetic Parameters Dataなど）の作成が推奨されています。\n\n### SASコード例：PK/PD解析用ADaMデータセット作成\n\nここでは、薬物動態パラメータ（AUC）を算出し、MIDD解析用のADaMデータセットを作成する簡易的なSASコード例を示します。これは概念的なものであり、実際のデータ構造や解析要件に応じて詳細な実装が必要です。\n\n```sas\n/* ADaM データセット作成のためのSASコード例 */\n\n/* 1. PK Concentration データ (SDTM PCドメインを想定) */\nDATA SDTM.PC;\n  LENGTH USUBJID $10 TRT01A $20 PCTESTCD $8 PCSTRESN 8 PCTPTNUM 8 PCLLOQ 8;\n  INPUT USUBJID $ TRT01A $ PCTESTCD $ PCSTRESN PCTPTNUM PCLLOQ;\n  DATALINES;\n  SUBJ001 A CMAX     120  1  5\n  SUBJ001 A AUCLAST  800  2  5\n  SUBJ002 B CMAX     150  1  5\n  SUBJ002 B AUCLAST  950  2  5\n  SUBJ003 A CMAX     100  1  5\n  SUBJ003 A AUCLAST  700  2  5\n  ;\nRUN;\n\n/* 2. SDTM EXドメイン (投与情報) を想定 */\nDATA SDTM.EX;\n  LENGTH USUBJID $10 EXDOSE 8 EXTRT $20;\n  INPUT USUBJID $ EXDOSE EXTRT $;\n  DATALINES;\n  SUBJ001 1000 A\n  SUBJ002 2000 B\n  SUBJ003 1000 A\n  ;\nRUN;\n\n/* 3. ADaM ADPPデータセットの作成 (PKパラメータを被験者ごとに集計) */\n/*   - USUBJID: Unique Subject Identifier */\n/*   - TRT01A: Actual Treatment */\n/*   - PARAMCD: Parameter Code (e.g., AUC, CMAX) */\n/*   - PARAM: Parameter (e.g., AUC (0-t), Cmax) */\n/*   - AVAL: Analysis Value */\n/*   - ADOSEC: Actual Dose Level (Categorical) */\n\nPROC SORT DATA=SDTM.PC OUT=PC_SORTED;\n  BY USUBJID PCTESTCD;\nRUN;\n\nDATA ADPP (LABEL='Analysis Dataset for Pharmacokinetic Parameters');\n  SET PC_SORTED;\n  BY USUBJID PCTESTCD;\n\n  LENGTH ADOSEC $20 PARAMCD $8 PARAM $40;\n\n  RETAIN AUCLAST_AVAL CMAX_AVAL;\n\n  IF FIRST.USUBJID THEN DO;\n    CALL MISSING(AUCLAST_AVAL, CMAX_AVAL);\n  END;\n\n  IF PCTESTCD = 'AUCLAST' THEN AUCLAST_AVAL = PCSTRESN;\n  IF PCTESTCD = 'CMAX' THEN CMAX_AVAL = PCSTRESN;\n\n  IF LAST.USUBJID THEN DO;\n    /* 投与量情報をマージ */\n    MERGE ADPP SDTM.EX;\n    BY USUBJID;\n    ADOSEC = PUT(EXDOSE, 8.) || ' mg'; /* 投与量をカテゴリカルに変換 */\n\n    /* AUCパラメータのレコード作成 */\n    IF NOT MISSING(AUCLAST_AVAL) THEN DO;\n      PARAMCD = 'AUC';\n      PARAM   = 'AUC (0-t) (ng*hr/mL)';\n      AVAL    = AUCLAST_AVAL;\n      OUTPUT;\n    END;\n\n    /* CMAXパラメータのレコード作成 */\n    IF NOT MISSING(CMAX_AVAL) THEN DO;\n      PARAMCD = 'CMAX';\n      PARAM   = 'Cmax (ng/mL)';\n      AVAL    = CMAX_AVAL;\n      OUTPUT;\n    END;\n  END;\n\n  KEEP USUBJID TRT01A ADOSEC PARAMCD PARAM AVAL;\n\nLABEL\n  USUBJID  = 'Unique Subject Identifier'\n  TRT01A   = 'Actual Treatment'\n  ADOSEC   = 'Actual Dose Level'\n  PARAMCD  = 'Parameter Code'\n  PARAM    = 'Parameter'\n  AVAL     = 'Analysis Value'\n;\nRUN;\n\nPROC PRINT DATA=ADPP;\n  TITLE 'ADaM ADPP Dataset for MIDD Analysis';\nRUN;\n```\n\n**コードの解説:**\nこのコードは、SDTM（Study Data Tabulation Model）のPC（Pharmacokinetics Concentrations）ドメインから薬物動態パラメータ（AUC, Cmax）を抽出し、EX（Exposure）ドメインから投与量情報を結合して、MIDD解析に利用可能なADaM ADPP（Pharmacokinetic Parameters）データセットを作成するものです。\n\n*   `USUBJID`: 被験者を一意に識別するID。\n*   `TRT01A`: 実際の治療群。\n*   `ADOSEC`: 実際の投与量をカテゴリカルに表現した変数。MIDDにおける用量反応解析で独立変数として利用されます。\n*   `PARAMCD`と`PARAM`: 解析パラメータのコードと詳細名。薬物動態パラメータ（AUC, Cmax）が格納されます。\n*   `AVAL`: 解析値。計算されたAUCやCmaxの値がここに入ります。\n\nこのようなADaMデータセットを準備することで、統計家や薬物動態専門家は、標準化されたデータ形式で迅速かつ正確なモデル構築や解析を実施し、MIDDに活用することが可能になります。\n\n## 海外の最新動向：FDA/EMAのMIDDとCDISC提出要件\n\nMIDDは、医薬品開発の効率化と科学的根拠の強化に資するとして、欧米の規制当局から強く推奨されています。ここでは、FDAとEMAの最新の動きと、CDISC標準との関連について見ていきましょう。\n\n### FDAのMIDDガイドラインと規制当局へのデータ提出\n\n米国FDA（米国食品医薬品局）は、長年にわたりMIDDの活用を奨励しており、近年ではその重要性がさらに増しています。2017年にはPDUFA VI（処方薬ユーザーフィー法第6次再承認）においてMIDDプログラムが導入され、開発企業とFDAがモデルやシミュレーションについて協議する機会が設けられました。さらに、2023年2月には「**Model-Informed Drug Development (MIDD) Guidance for Industry**」のドラフト版が発表され、MIDDの適用範囲、適切な実施方法、規制当局との対話における期待事項が詳細に示されています。\n\n**出典:** [FDA: Model-Informed Drug Development (MIDD) Guidance for Industry (Draft Guidance)](https://www.fda.gov/regulatory-information/search-fda-guidance-documents/model-informed-drug-development-guidance-industry)\n\nこのガイドラインでは、MIDDを導入することで、特にオンコロジー領域における用量選択、臨床試験のデザイン最適化、特殊集団（小児、腎機能障害患者など）での用量調整、そしてリアルワールドデータ（RWD）の活用に期待が寄せられています。\n\nFDAへの電子データ提出に関しては、「**Study Data Technical Conformance Guide (Technical Conformance Guide)**」が最新の要件を示しています。このガイドでは、CDISC標準（SDTM、ADaM、Define-XML、Controlled Terminology - CT）に準拠したデータ提出が必須とされており、特にADaMデータセットは、モデル解析の基礎となるデータとして、その構造と内容が厳しくチェックされます。MIDD解析の結果をサポートするADaMデータセットは、FDAが理解し、再現可能な形式で提供される必要があります。\n\n### EMAにおけるMIDDの推進\n\n欧州医薬品庁（EMA）もまた、MIDDの重要性を認識し、その活用を積極的に推進しています。EMAは、ICH（医薬品規制調和国際会議）の活動を通じてMIDDの国際的な調和に貢献しており、特に**ICH E4R2: Dose Response Information to Support Drug Approval**の改訂版では、MIDDの原則が強く盛り込まれています。これにより、用量反応関係の評価において、従来の試験データだけでなく、モデルを用いた解析結果も重要なエビデンスとして考慮されるようになっています。\n\n**出典:** [EMA: ICH E4R2 Dose Response Information to Support Drug Approval](https://www.ema.europa.eu/en/documents/scientific-guideline/ich-e4r2-dose-response-information-support-drug-approval-draft-guideline_en.pdf)\n\nEMAへの電子データ提出もCDISC標準に厳格に準拠する必要があります。FDAと同様に、SDTM、ADaM、Define-XML、CTの提出が求められ、特にADaMデータセットは、解析の透明性と再現性を保証するために不可欠です。MIDD解析に用いたデータ、モデル、解析スクリプトなども、必要に応じて補足資料として提出が求められる場合があります。\n\n### CDISC標準の更新とMIDD\n\nCDISC（Clinical Data Interchange Standards Consortium）は、MIDDのニーズに応える形で、標準の更新を続けています。特にADaM Implementation Guide (ADaM IG) では、Population PK/PD解析などに用いるADaMデータセット（例：ADPC, ADPP）の構造に関するガイダンスが提供されており、MIDD解析の基盤データとしての活用が想定されています。また、CDISCは、薬物動態学や薬力学の分野で専門家グループとの連携を強化し、MIDDで用いられる新たなデータタイプや変数に対応するための標準開発も進めています。\n\n## 日本での対応ポイント：PMDAと電子データ提出の現実\n\n日本の医薬品医療機器総合機構（PMDA）も、医薬品開発の効率化と国際調和の観点からMIDDの活用に注目しており、電子データ提出要件の整備を進めています。日本の実務担当者は、海外の動向を踏まえつつ、PMDA固有の要件を理解し、適切に対応する必要があります。\n\n### PMDAの電子データ提出要件とMIDDの活用\n\nPMDAは、2016年4月1日以降に提出される新医薬品の承認申請において、治験データをCDISC標準に準拠した電子データ（SDTM、ADaM、Define-XML、CT）で提出することを義務付けています。これは、FDAやEMAと共通の方向性です。\n\n**出典:** [PMDA: 治験関連資料の電子データ提出に関する提出時期等について](https://www.pmda.go.jp/files/000213897.pdf)\n\nPMDAは、MIDDに関する具体的なガイドラインはまだ発表していませんが、科学的な根拠に基づいた用量選択や開発戦略を評価する上で、MIDDの活用は非常に有効なアプローチであると認識しています。特に、国際共同治験が増える中で、海外でMIDDを用いて効率化された開発結果を日本でも迅速に評価するためには、その解析の基盤となるADaMデータの品質と標準への準拠が不可欠です。\n\n#### FDA/EMA/PMDAの電子データ提出要件比較\n\n| 項目                 | FDA                                         | EMA                                       | PMDA                                      |\n| :------------------- | :------------------------------------------ | :---------------------------------------- | :---------------------------------------- |\n| **CDISC標準**        | SDTM, ADaM, Define-XML, CTは必須         | SDTM, ADaM, Define-XML, CTは必須         | SDTM, ADaM, Define-XML, CTは必須         |\n| **提出形式**         | eCTD (Study Data Technical Conformance Guide) | eCTD (Guideline on submission of raw data) | eCTD (治験関連資料の電子データ提出に関する提出時期等について) |\n| **MIDDガイダンス**   | **「Model-Informed Drug Development (MIDD) Guidance for Industry」ドラフト版を公開** | ICH E4R2などを通じてMIDDを推奨。**Specific MIDD guidanceはないが、EBA(Evidence-Based Medicine)重視** | **具体的なMIDDガイダンスは未公表だが、科学的合理性を評価する上で肯定的な見解。** |\n| **バリデーション**   | Pinnacle 21等によるバリデーション結果の提出を推奨 | Pinnacle 21等によるバリデーション結果の提出を推奨 | Pinnacle 21等によるバリデーション結果の提出を推奨 |\n| **地域固有の差**     | 特にオンコロジー・特殊集団でのMIDD活用を推奨 | 国際調和（ICH）を重視しMIDDの応用範囲を拡大 | 国際共同治験でのデータ活用の重要性。日本での臨床的妥当性の検討 |\n\n\n### eCTDとStudy Data Technical Conformance Guide\n\n電子データ提出の際は、**eCTD（electronic Common Technical Document）**という国際的に合意された申請ドキュメント構造に従って提出する必要があります。CDISCに準拠したSDTM/ADaMデータセットは、eCTDのモジュール5（臨床報告書）内の適切なセクションに格納されます。\n\nFDAの「Study Data Technical Conformance Guide」は、FDAへの電子データ提出に関する詳細な技術要件を規定しています。ファイル命名規則、フォルダ構造、データセットのメタデータ（Define-XML）、バリデーションレポートの取り扱いなど、多岐にわたります。PMDAも同様に、独自の「治験関連資料の電子データ提出に関する提出時期等について」という通知で、eCTDの要件やバリデーションツールの使用について言及しています。\n\n日本の実務担当者は、これらのガイドを熟読し、特にADaMデータセットの作成において、PMDAが期待する解析視点（例：日本人集団における用量反応性、安全性プロファイルなど）を考慮に入れることが重要です。\n\n## よくあるエラーと対処法：ADaMデータセットのバリデーション\n\nCDISC標準に準拠したADaMデータセットを作成しても、規制当局への提出前に必ずバリデーション（検証）を行う必要があります。バリデーションツールとしては、業界標準であるPinnacle 21（現在はCertara社）が広く利用されています。\n\n### Pinnacle 21でのバリデーションとエラー例\n\nPinnacle 21は、CDISC標準への準拠性、データの整合性、そして提出ガイドラインへの適合性を自動的にチェックします。バリデーションレポートには、エラー（Error）、警告（Warning）、注意（Notice）といったメッセージが出力されます。\n\n**よくあるADaMのバリデーションエラー例:**\n\n*   **SD0001 / AD0001 (Missing Required Variable):** ADaM IGで必須とされている変数が欠損している場合。例: `USUBJID`、`PARAMCD`、`AVAL`などが抜けている。\n    *   **対処法:** ADaM IGを確認し、必須変数がすべてデータセットに含まれているか確認・追加する。\n*   **AD0002 (Incorrect Variable Type):** 変数のデータ型（文字型/数値型）がADaM IGと異なる場合。例: 数値であるべき`AVAL`が文字型になっている。\n    *   **対処法:** SASの`LENGTH`ステートメントや`INPUT`関数を用いて、正しいデータ型に変換する。\n*   **AD0003 (Invalid Codelist Value):** 特定の変数の値が、CDISC Controlled Terminology（CT）で定義された許容値リストに含まれていない場合。例: `PARAMCD`がCTにない値である。\n    *   **対処法:** 最新のCDISC CTを確認し、正しいTermを使用するか、Define-XMLで独自のCodelistを適切に定義する。\n*   **AD0006 (Duplicate Record):** 同じキー変数（例: `USUBJID`, `PARAMCD`, `ATPTNUM`など）の組み合わせで重複レコードが存在する場合。\n    *   **対処法:** データ作成プロセスを見直し、重複が発生しないように修正するか、`PROC SORT`と`NODUPKEY`オプションなどで重複を削除する。\n*   **AD0017 (Missing Define-XML Metadata):** データセットや変数がDefine-XMLファイルで定義されていない、または定義が不完全な場合。\n    *   **対処法:** Define-XMLファイルを正確に作成・更新し、データセットと変数のメタデータ（ラベル、データ型、Codelist、Originなど）をすべて記述する。\n\n### よくあるバリデーションエラーとその対策\n\n| エラーカテゴリ       | 具体的な問題                                   | 対策のヒント                                                               |\n| :------------------- | :--------------------------------------------- | :------------------------------------------------------------------------- |\n| **データ構造**       | 必須変数欠損、不適切なデータ型、重複レコード   | ADaM IGの熟読。SASの`PROC CONTENTS`でデータ型確認。`PROC SORT`で重複チェック。 |\n| **メタデータ**       | Define-XMLの定義不足、不正確な記述           | Define-XML作成ツールの活用。データセットとDefine-XMLのクロスチェック。     |\n| **Controlled Terminology** | 定義外の値を使用                               | 最新のCDISC CTの確認。独自のCodelist定義時はDefine-XMLでOriginを明記。       |\n| **解析変数**         | `AVAL`や`ADTM`などの解析変数の不整合         | 導出ロジックの厳密な文書化と実装。バリデーションルールで定義された導出ロジックとの合致確認。 |\n\n\nバリデーションエラーを早期に発見し、修正することで、再提出の手間を省き、承認申請プロセスをスムーズに進めることができます。エラーメッセージの内容を正確に理解し、CDISC標準と照らし合わせながら、根本的な原因を特定して修正することが重要です。\n\n## よくある質問（FAQ）\n\n**Q1: MIDDはすべての医薬品開発フェーズで必要ですか？**\n\nA1: 必ずしもすべてのフェーズで必須ではありませんが、開発の早期段階から活用することで、用量選択や臨床試験デザインの最適化、開発期間短縮に大きく貢献します。特にオンコロジーのように複雑な病態や治療を扱う領域では、その有用性が高いとされています。規制当局も早期からの活用を奨励しています。\n\n**Q2: ADaMデータセットはMIDD解析に必須ですか？**\n\nA2: MIDD自体は解析手法の概念ですが、規制当局への電子データ提出において、解析に用いたデータはCDISC ADaMに準拠している必要があります。ADaMは解析の透明性、再現性、および規制当局によるデータレビューの効率化を目的としています。したがって、MIDD解析の最終結果をサポートするデータはADaM形式で準備するのが必須と考えてください。\n\n**Q3: PMDAはMIDD関連データを具体的にどのように評価しますか？**\n\nA3: PMDAは、特定のMIDDガイドラインを持っていませんが、科学的根拠に基づいた用量選択や有効性・安全性評価において、MIDDによる解析結果は重要な補足情報として評価されます。提出されたADaMデータセットが、提示されたモデル解析の根拠として適切であるか、解析手法が妥当であるかなどを確認します。特に国際共同治験の場合、海外の評価結果との整合性も確認されます。\n\n**Q4: 電子データ提出時に、FDA、EMA、PMDAで特に注意すべき違いはありますか？**\n\nA4: 基本的なCDISC標準への準拠は共通ですが、各規制当局の「Technical Conformance Guide」には、フォルダ構造、ファイル命名規則、Define-XMLの特定の要件、提出資料の記述方法などに細かな違いが存在します。例えば、PMDAは日本語の表示にも対応できるようなDefine-XMLのDescriptionの書き方に関する示唆を出すことがあります。提出前に各当局の最新ガイドラインを必ず確認し、それに合わせて調整することが不可欠です。\n\n**Q5: MIDD解析で使用したSASコードやモデルコードも提出する必要がありますか？**\n\nA5: 必須ではありませんが、多くの規制当局は、MIDD解析の再現性を確認するため、解析に用いたプログラムコードやモデルファイル（例: NONMEM®のコントロールファイル）を補足資料として提出することを推奨しています。これは、データ提出ガイドラインや個別の協議を通じて求められる場合があります。コードには十分なコメントを付し、第三者が理解しやすいように準備しておくことが望ましいです。\n\n## CDISC実務に役立つリソース\n\nこの記事の内容をさらに深めるために、以下のリソースが役立ちます。\n\n- **[Amazon CDISC書籍](https://www.amazon.co.jp?tag=musclelove07-22)** - CDISC・臨床データ標準の参考書\n- **[Udemy SAS講座](https://www.udemy.com)** - 動画で学ぶCDISC実装\n- **[楽天 医薬品開発書籍](https://www.rakuten.co.jp)** - 製薬・臨床開発の参考書\n\n*上記リンクからご利用いただくと、サイト運営の支援になります。*\n\n\n## まとめ\n\n本記事では、オンコロジー領域における用量選択の最適化に不可欠なMIDD（Model-Informed Drug Development）の概念から、それを支えるCDISC ADaM（Analysis Data Model）を用いた臨床データ解析の実装、そしてFDA、EMA、PMDAといった主要な規制当局の最新動向と電子データ提出要件までを幅広く解説しました。\n\nMIDDは、現代の医薬品開発において、より科学的で効率的な意思決定を可能にする強力なツールです。特に、SDTMやADaMといったCDISC標準に準拠した高品質な電子データの作成と提出は、MIDD解析の信頼性を担保し、規制当局との円滑なコミュニケーションを築く上で極めて重要です。\n\n日米欧の規制当局は、基本的なCDISC準拠を求める点で共通していますが、それぞれの「Study Data Technical Conformance Guide」には細かな違いが存在します。日本の実務担当者の皆様は、これらの違いを正確に把握し、Pinnacle 21などのバリデーションツールを最大限に活用して、質の高い電子データを提出することで、医薬品開発の成功に貢献できるはずです。今後の国際共同開発においては、MIDDとCDISC標準の深い理解が、ますます重要なスキルとなるでしょう。\n\nCDISC Standards Navigatorは、これからも皆様の実務に役立つ最新情報をお届けしてまいります。ご不明な点やご質問がありましたら、お気軽にお問い合わせください。\n",
  "meta_description": "MIDDがオンコロジー用量選択と臨床データ解析にどう役立つか、ADaMを用いたSASコード例を解説。FDA/EMA/PMDA規制当局の最新CDISC電子データ提出要件と対策をベテランSASプログラマーが徹底解説。",
  "tags": [
    "MIDD",
    "オンコロジー",
    "用量選択",
    "臨床データ解析",
    "ADaM",
    "規制当局",
    "CDISC",
    "FDA",
    "PMDA",
    "EMA",
    "SASプログラミング",
    "電子データ提出",
    "Define-XML",
    "Pinnacle 21"
  ],
  "slug": "midd-oncology-dose-selection-adam-regulatory-update",
  "faq": [
    {
      "question": "MIDDはすべての医薬品開発フェーズで必要ですか？",
      "answer": "必ずしもすべてのフェーズで必須ではありませんが、開発の早期段階から活用することで、用量選択や臨床試験デザインの最適化、開発期間短縮に大きく貢献します。特にオンコロジーのように複雑な病態や治療を扱う領域では、その有用性が高いとされています。規制当局も早期からの活用を奨励しています。"
    },
    {
      "question": "ADaMデータセットはMIDD解析に必須ですか？",
      "answer": "MIDD自体は解析手法の概念ですが、規制当局への電子データ提出において、解析に用いたデータはCDISC ADaMに準拠している必要があります。ADaMは解析の透明性、再現性、および規制当局によるデータレビューの効率化を目的としています。したがって、MIDD解析の最終結果をサポートするデータはADaM形式で準備するのが必須と考えてください。"
    },
    {
      "question": "PMDAはMIDD関連データを具体的にどのように評価しますか？",
      "answer": "PMDAは、特定のMIDDガイドラインを持っていませんが、科学的根拠に基づいた用量選択や有効性・安全性評価において、MIDDによる解析結果は重要な補足情報として評価されます。提出されたADaMデータセットが、提示されたモデル解析の根拠として適切であるか、解析手法が妥当であるかなどを確認します。特に国際共同治験の場合、海外の評価結果との整合性も確認されます。"
    },
    {
      "question": "電子データ提出時に、FDA、EMA、PMDAで特に注意すべき違いはありますか？",
      "answer": "基本的なCDISC標準への準拠は共通ですが、各規制当局の「Technical Conformance Guide」には、フォルダ構造、ファイル命名規則、Define-XMLの特定の要件、提出資料の記述方法などに細かな違いが存在します。例えば、PMDAは日本語の表示にも対応できるようなDefine-XMLのDescriptionの書き方に関する示唆を出すことがあります。提出前に各当局の最新ガイドラインを必ず確認し、それに合わせて調整することが不可欠です。"
    },
    {
      "question": "MIDD解析で使用したSASコードやモデルコードも提出する必要がありますか？",
      "answer": "必須ではありませんが、多くの規制当局は、MIDD解析の再現性を確認するため、解析に用いたプログラムコードやモデルファイル（例: NONMEM®のコントロールファイル）を補足資料として提出することを推奨しています。これは、データ提出ガイドラインや個別の協議を通じて求められる場合があります。コードには十分なコメントを付し、第三者が理解しやすいように準備しておくことが望ましいです。"
    }
  ],
  "hero_emoji": "📝",
  "hero_gradient": "135deg",
  "keyword": "MIDD, オンコロジー, 用量選択, 臨床データ解析, ADaM, 規制当局",
  "category": "規制当局対応",
  "generated_at": "2026-04-12T05:23:55.747488",
  "has_affiliate": true,
  "affiliate_count": 3,
  "eyecatch_url": "https://images.unsplash.com/photo-1554224155-6726b3ff858f?w=1200&h=630&fit=crop&auto=format&q=80",
  "eyecatch_credit": "Photo from [Unsplash](https://unsplash.com/)"
}