{
  "title": "PMDA・FDA承認審査を乗り切る！臨床データ提出の最新要件と実務",
  "content": "# PMDA・FDA承認審査を乗り切る！臨床データ提出の最新要件と実務\n\n![PMDA・FDA承認審査を乗り切る！臨床データ提出の最新要件と実務](https://images.unsplash.com/photo-1507003211169-0a1dd7228f2d?w=1200&h=630&fit=crop&auto=format&q=80)\n\n*Photo from [Unsplash](https://unsplash.com/)*\n\n\n## この記事でわかること\n*   PMDAとFDA、両規制当局への臨床データ提出における主要な要件と違い。\n*   CDISC標準（SDTM, ADaM, Define-XML）を用いたデータセット作成・提出の具体的なステップ。\n*   海外（FDA、EMA）の最新規制動向と、日本の実務に即した対応ポイント。\n*   eCTD（電子共通技術文書）とStudy Data Technical Conformance Guideの重要性。\n*   よくあるバリデーションエラーとその対処法、Pinnacle 21の活用法。\n\n## 結論から言うと\n医薬品の**承認審査**を成功させるためには、**PMDA**とFDA双方で**臨床データ提出**の要件を満たすことが不可欠です。CDISC標準に準拠したSDTM/ADaMデータセットとDefine-XMLをeCTD形式で提出し、各規制当局のStudy Data Technical Conformance Guideを遵守した品質の高いデータを用意することが、迅速な承認への鍵となります。\n\n## 承認審査と臨床データ提出とは？\n\n新薬が患者さんのもとに届くためには、安全性と有効性を科学的に証明し、各国の規制当局（日本では**PMDA**、米国ではFDA、欧州ではEMAなど）の**承認審査**を通過する必要があります。この審査において、臨床試験で得られた膨大なデータは、その評価の根幹となります。従来は紙媒体や非標準化された形式での提出も許されていましたが、グローバルな開発が進むにつれて、効率的かつ一貫したデータレビューを可能にするための標準化が強く求められるようになりました。\n\nそこで登場したのが、CDISC（Clinical Data Interchange Standards Consortium）データ標準です。CDISCは、**臨床データ提出**の際に使用するデータの構造や形式を国際的に標準化することで、規制当局によるレビューの効率化、データの再利用性の向上、そして国際共同治験における協力体制の強化を目指しています。\n\n主要なCDISC標準には、生データに近い構造で臨床試験データを標準化するSDTM（Study Data Tabulation Model）、統計解析に用いる解析データを標準化するADaM（Analysis Data Model）、そしてデータセットのメタデータ（定義情報）をXML形式で記述するDefine-XMLがあります。これらの標準に則って作成されたデータは、eCTD（electronic Common Technical Document：電子共通技術文書）という形式で規制当局に提出されます。eCTDは、医薬品の申請に必要な文書を電子的に構造化するための国際的な標準フォーマットです。\n\n**PMDA**やFDAは、このCDISC標準に準拠した電子的**臨床データ提出**を義務付けており、そのための具体的な要件を「Study Data Technical Conformance Guide（技術的適合性ガイド）」などの文書で示しています。これにより、提出データの品質と一貫性が保たれ、より迅速かつ的確な**承認審査**が可能になります。\n\n## 実務での使い方・実装手順\n\nCDISC準拠の**臨床データ提出**は、SASプログラマーにとって日々の業務の核となる部分です。ここでは、SDTMとADaMデータセットの作成、Define-XMLの準備、そしてeCTDへの組込み手順について、具体的なSASコード例を交えながら解説します。\n\n### 1. SDTMデータセットの作成\n\nSDTM（Study Data Tabulation Model）は、個々の被験者データ（Observation Level Data）を標準化するためのモデルです。生データ（CRFデータやラボデータ）をSDTMドメイン（例: DM, AE, CM, VS, LBなど）にマッピングし、標準変数（Variable）と制御語彙（Controlled Terminology：CT）を用いて構造化します。\n\n**SASコード例: DM（Demographics）ドメインの作成**\n\n```sas\n/* SDTM DMドメインの作成例 */\ndata sdtm.dm;\n  set raw.patient_info; /* 元の症例登録情報データセット */\n\n  /* USUBJID (Unique Subject Identifier): 施設と被験者番号を組み合わせてユニークなIDを作成 */\n  USUBJID = catx('-', 'STUDYID001', SITEID, SUBJID);\n  STUDYID = 'STUDY001'; /* 試験識別子 */\n  DOMAIN = 'DM'; /* ドメインコード */\n  SUBJID = put(SUBJID, 8.); /* 被験者識別子を文字列化（必要に応じて） */\n  \n  /* RFSTDTC (Date/Time of First Study Treatment): 最初の治験薬投与開始日 */\n  RFSTDTC = put(date_of_first_dose, yymmdd10.); \n  /* RFENDTC (Date/Time of Last Study Treatment): 最後の治験薬投与終了日 */\n  RFENDTC = put(date_of_last_dose, yymmdd10.); \n  \n  /* BRTHDTC (Date of Birth): 生年月日 */\n  BRTHDTC = put(birth_date, yymmdd10.); \n  /* AGE (Age (Years)): 年齢を計算 */\n  AGE = int((today() - birth_date) / 365.25); \n  \n  /* SEX (Sex): 性別をCDISC CTにマッピング */\n  SEX = case; \n    when gender = 'M' then 'MALE';\n    when gender = 'F' then 'FEMALE';\n    else 'UNKNOWN';\n  end;\n  \n  /* RACE (Race): 人種をマッピング */\n  RACE = raw_race; \n  /* ETHNIC (Ethnicity): 民族をマッピング */\n  ETHNIC = raw_ethnicity; \n  \n  /* DTHFL (Subject Death Flag): 死亡フラグ */\n  DTHFL = if death_flag = 'Y' then 'Y'; \n  /* DTHDTC (Date/Time of Death): 死亡日時 */\n  DTHDTC = put(death_date, yymmdd10.); \n\n  /* 変数ラベルの付与 (Define-XMLの生成にも使用される重要なメタデータ) */\n  label\n    USUBJID = 'Unique Subject Identifier'\n    STUDYID = 'Study Identifier'\n    DOMAIN = 'Domain Abbreviation'\n    SUBJID = 'Subject Identifier'\n    RFSTDTC = 'Date/Time of First Study Treatment'\n    RFENDTC = 'Date/Time of Last Study Treatment'\n    BRTHDTC = 'Date of Birth'\n    AGE = 'Age (Years)'\n    SEX = 'Sex'\n    RACE = 'Race'\n    ETHNIC = 'Ethnicity'\n    DTHFL = 'Subject Death Flag'\n    DTHDTC = 'Date/Time of Death'\n  ;\nrun;\n\n## CDISC実務に役立つリソース\n\nこの記事の内容をさらに深めるために、以下のリソースが役立ちます。\n\n- **[Amazon CDISC書籍](https://www.amazon.co.jp?tag=musclelove07-22)** - CDISC・臨床データ標準の参考書\n- **[Udemy SAS講座](https://www.udemy.com)** - 動画で学ぶCDISC実装\n- **[楽天 医薬品開発書籍](https://www.rakuten.co.jp)** - 製薬・臨床開発の参考書\n\n*上記リンクからご利用いただくと、サイト運営の支援になります。*\n",
  "hero_emoji": "📝",
  "hero_gradient": "135deg",
  "meta_description": "PMDA・FDA承認審査を乗り切る！臨床データ提出の最新要件と実務\n\n この記事でわかること\n   PMDAとFDA、両規制当局への臨床データ提出における主要な要件と違い。\n   CDISC標準（SDTM, ADaM, Define-XM",
  "tags": [
    "自動生成",
    "ブログ",
    "記事",
    "SEO",
    "最新"
  ],
  "slug": "pmdafda",
  "keyword": "承認審査, 臨床データ提出, PMDA",
  "category": "規制当局対応",
  "generated_at": "2026-04-13T05:41:31.249229",
  "has_affiliate": true,
  "affiliate_count": 3,
  "eyecatch_url": "https://images.unsplash.com/photo-1507003211169-0a1dd7228f2d?w=1200&h=630&fit=crop&auto=format&q=80",
  "eyecatch_credit": "Photo from [Unsplash](https://unsplash.com/)"
}