{
  "title": "PMDA承認審査と臨床データ提出の極意",
  "content": "# PMDA承認審査と臨床データ提出の極意：ベテランSASプログラマーが解説\n\n![PMDA承認審査と臨床データ提出の極意](https://images.unsplash.com/photo-1507003211169-0a1dd7228f2d?w=1200&h=630&fit=crop&auto=format&q=80)\n\n*Photo from [Unsplash](https://unsplash.com/)*\n\n\n皆さん、こんにちは！CDISC Standards Navigatorへようこそ。FDAとPMDA両方への申請経験を持つベテランSASプログラマーの私が、PMDA承認審査における臨床データ提出の最新トレンドと実務のコツを徹底解説します。特に、海外の規制動向を日本の実務担当者の皆様にわかりやすくお伝えすることに注力しています。電子データ提出は今や承認審査の必須要件であり、その品質が審査の成否を分けると言っても過言ではありません。\n\n## この記事でわかること\n*   PMDA（医薬品医療機器総合機構）への臨床データ提出における最新要件とCDISC（臨床データ標準化コンソーシアム）標準の役割を理解できます。\n*   SDTM（Submission Data Tabulation Model）やADaM（Analysis Data Model）などのCDISCデータセットをSASで作成する具体的な手順とコード例を学べます。\n*   FDA（米国食品医薬品局）やEMA（欧州医薬品庁）の最新動向とPMDAの要件との違いを表形式で比較し、日本の実務での対応ポイントを把握できます。\n*   Pinnacle 21などのバリデーションツールでよくあるエラーとその対処法を実践的に習得できます。\n*   eCTD（申請電子データパッケージ）におけるDefine-XML（データセットのメタデータ定義ファイル）の重要性と作成のポイントを理解できます。\n\n## 結論から言うと\nPMDAへの臨床データ提出は、CDISC標準に準拠した高品質な電子データが必須です。特に、FDAとの要件の違いを理解し、Define-XMLを含めたデータパッケージを正確に作成することが承認審査をスムーズに進める鍵となります。Pinnacle 21などのバリデーションツールを最大限に活用し、エラーを早期に特定・修正する体制が重要です。\n\n## PMDA承認審査と臨床データ提出とは？\n\n医薬品や医療機器の承認を得るためには、その安全性と有効性を示す膨大な臨床試験データをPMDA（医薬品医療機器総合機構）に提出する必要があります。このデータ提出は現在、eCTD（申請電子データパッケージ）と呼ばれる電子形式で行うことが義務付けられています。eCTDは、申請資料全体を構造化されたXML形式で提出する国際的な標準であり、臨床試験データもその一部として含まれます。\n\n### CDISCデータ標準の基礎\n\n臨床データは、そのまま提出するのではなく、CDISCが定める国際的な標準形式に変換して提出することが求められます。これは、審査官がデータを効率的に理解し、審査の透明性と比較可能性を高めるためです。主なCDISC標準には以下のものがあります。\n\n*   **SDTM（Submission Data Tabulation Model）**: 個々の被験者データ（例：人口統計、バイタルサイン、有害事象、併用薬など）を生データに近い形で構造化するためのモデルです。ドメインと呼ばれる複数のデータセットで構成されます。\n*   **ADaM（Analysis Data Model）**: 統計解析に直接使用できるよう、SDTMデータを解析目的に合わせて加工・派生させた解析用データセットのモデルです。解析結果の再現性確保に貢献します。\n*   **Define-XML**: SDTMやADaMといったデータセットの構造、変数、コードリスト、導出ロジックなどを定義するメタデータファイルです。データセットの「取扱説明書」のような役割を果たし、審査官がデータを理解するための必須資料です。\n*   **CDISC CT（Controlled Terminology）**: SDTMやADaMで使用される変数値（例：性別、人種、有害事象の程度など）に、標準化された用語リストを提供します。これにより、データの一貫性と比較可能性が保たれます。\n\nこれらの標準に準拠したデータ提出は、PMDA承認審査を円滑に進める上で不可欠な要素です。適切なデータ標準の適用は、データ品質の向上だけでなく、審査期間の短縮にも寄与すると考えられます。\n\n## PMDAへの臨床データ提出：実務でのステップとSASコード例\n\nここでは、CDISC準拠の臨床データを作成し、PMDAへ提出するまでの実務的なステップを、SASコード例を交えて解説します。\n\n### ステップ1：SDTMデータセットの準備\n\nSDTMデータセットは、生データ（EDCシステムなどから出力されたデータ）をCDISC標準のドメイン構造に合わせてマッピング（変換）することから始まります。各ドメイン（DM, AE, CMなど）には必須変数があり、それらを正確に設定することが重要です。\n\n**SDTMマッピングの具体例（DMドメイン）**\n\n```sas\ndata sdtm.DM;\n  set raw_data.DEMOGRAPHICS; /* 生データソース */\n\n  /* 必須変数のマッピング */\n  USUBJID = catx('-', 'SITE', put(SITEID, z4.), put(SUBJID, z4.)); /* 試験固有被験者識別子 */\n  SUBJID  = put(SUBJID, z4.); /* 施設内被験者識別子 */\n  STUDYID = 'ABC001'; /* 試験識別子 */\n  DOMAIN  = 'DM'; /* ドメインコード */\n  RFSTDTC = put(RFSTDTC, yymmdd10.); /* 被験者初回投与日時 */\n  RFENDTC = put(RFENDTC, yymmdd10.); /* 被験者最終投与日時 */\n  BRTHDTC = put(BRTHDTC, yymmdd10.); /* 誕生日 */\n\n  /* その他の変数のマッピング */\n  SEX = SEX_RAW; /* 性別 */\n  AGE = int((today() - BRTHDTC)/365.25); /* 年齢を計算 */\n  RACE = RACE_RAW; /* 人種 */\n  ETHNIC = ETHNIC_RAW; /* 民族 */\n  ARM = put(TREATMENT_GRP, $TREATGRPFMT.); /* 割付アーム */\n  ACTARM = ARM; /* 実際の治療アーム */\n  SITEID  = put(SITEID, z4.); /* 施設識別子 */\n\n  /* ラベルとフォーマットの設定 */\n  label USUBJID = 'Unique Subject Identifier'\n        STUDYID = 'Study Identifier'\n        DOMAIN  = 'Domain Abbreviation'\n        RFSTDTC = 'Date/Time of First Study Treatment'\n        RFENDTC = 'Date/Time of Last Study Treatment'\n        BRTHDTC = 'Date of Birth'\n        SEX     = 'Sex'\n        AGE     = 'Age'\n        RACE    = 'Race'\n        ETHNIC  = 'Ethnicity'\n        ARM     = 'Planned Arm'\n        ACTARM  = 'Actual Arm';\n\n  format RFSTDTC RFENDTC BRTHDTC yymmdd10.;\nrun;\n\nproc contents data=sdtm.DM; run;\n\n## CDISC実務に役立つリソース\n\nこの記事の内容をさらに深めるために、以下のリソースが役立ちます。\n\n- **[Amazon CDISC書籍](https://www.amazon.co.jp?tag=musclelove07-22)** - CDISC・臨床データ標準の参考書\n- **[Udemy SAS講座](https://www.udemy.com)** - 動画で学ぶCDISC実装\n- **[楽天 医薬品開発書籍](https://www.rakuten.co.jp)** - 製薬・臨床開発の参考書\n\n*上記リンクからご利用いただくと、サイト運営の支援になります。*\n",
  "hero_emoji": "📝",
  "hero_gradient": "135deg",
  "meta_description": "PMDA承認審査と臨床データ提出の極意：ベテランSASプログラマーが解説\n\n皆さん、こんにちは！CDISC Standards Navigatorへようこそ。FDAとPMDA両方への申請経験を持つベテランSASプログラマーの私が、PMDA",
  "tags": [
    "自動生成",
    "ブログ",
    "記事",
    "SEO",
    "最新"
  ],
  "slug": "pmda",
  "keyword": "PMDA承認審査, 臨床データ提出",
  "category": "規制当局対応",
  "generated_at": "2026-04-20T05:40:39.393488",
  "has_affiliate": true,
  "affiliate_count": 3,
  "eyecatch_url": "https://images.unsplash.com/photo-1507003211169-0a1dd7228f2d?w=1200&h=630&fit=crop&auto=format&q=80",
  "eyecatch_credit": "Photo from [Unsplash](https://unsplash.com/)"
}