{
  "title": "PKデータ申請の鍵：SDTM/ADaMでワークフロー改善！",
  "content": "# PKデータ申請の鍵：SDTM/ADaMでワークフロー改善！\n\n![PKデータ申請の鍵：SDTM/ADaMでワークフロー改善！](https://images.unsplash.com/photo-1532187863486-abf9dbad1b69?w=1200&h=630&fit=crop&auto=format&q=80)\n\n*Photo from [Unsplash](https://unsplash.com/)*\n\n\nCDISC Standards Navigatorへようこそ！ベテランSASプログラマーの私が、PKデータ（薬物動態データ）のSDTMマッピング、ADaM解析、そして申請ワークフロー改善のノウハウを解説します。FDAやPMDAの最新動向と実践的なSASコード例を交えながら、皆様のCDISCデータ提出を強力にサポートします。\n\n## この記事でわかること\n- PKデータ（薬物動態データ）のSDTMマッピングとADaM解析の基本\n- FDA/PMDA申請におけるPKデータのCDISC標準対応のポイント\n- SDTMおよびADaMを活用したPKデータ処理のワークフロー改善策\n- 具体的なSASコード例と実装上の注意点\n- 最新の海外規制動向と日本の実務への落とし込み方\n\n## 結論から言うと\nPKデータは、SDTMではPC（Pharmacokinetics Concentration）ドメインを中心に、ADaMではADPC（Analysis Data for Pharmacokinetics Concentration）やADPP（Analysis Data for Pharmacokinetics Parameters）ドメインで標準化します。この標準化は、規制当局（FDAやPMDA）の審査をスムーズにし、データ品質と申請ワークフローを劇的に改善する鍵となります。本記事では、具体的なSDTMマッピングとADaM解析のSASコード例、最新の規制動向を通じて、皆様の実務に役立つ情報をお届けします。\n\n## PKデータとは？\n薬物動態（Pharmacokinetics; PK）データとは、薬物が体内でどのように吸収、分布、代謝、排泄されるか（ADME）を示すデータです。臨床試験では、被験者から採取された血液や尿中の薬物濃度を測定し、その経時変化を分析することで、薬物の効果や安全性を評価します。主なデータ項目には、薬物濃度、採血時間、投与情報、被験者情報などがあります。これらのPKデータをCDISC（Clinical Data Interchange Standards Consortium）標準に準拠して提出することは、申請資料の一貫性を保ち、効率的な審査、そしてデータの国際的な共有を可能にするために不可欠です。\n\n## 実務での使い方・実装手順\n### SDTMマッピング：PKデータ（薬物濃度）をPCドメインへ\n薬物濃度データは、SDTM（Study Data Tabulation Model）のPC（Pharmacokinetics Concentration）ドメインにマッピングします。PCドメインは、被験者から採取された生体サンプル中の薬物濃度とその関連情報を記録するために設計されています。\n\n**主要なSDTM PC変数とマッピング例:**\n- `USUBJID`: 被験者識別子\n- `PCSEQ`: レコード内のシーケンス番号\n- `PCDTC`: 採血日時\n- `PCTPT`: 採血時点（例: PREDOSE, 1HR POSTDOSE）\n- `PCORRES`: 生の薬物濃度結果（文字列）\n- `PCORRESU`: `PCORRES`の単位\n- `PCSTRESN`: 標準化された薬物濃度結果（数値）\n- `PCSTRESU`: `PCSTRESN`の単位\n- `PCSPCCAT`: 検体カテゴリ（例: PLASMA）\n- `PCSPEC`: 検体種類（例: PLASMA）\n- `PCTEST`, `PCTESTCD`: 検査名とコード（例: 'Analyte Concentration', 'ANACONC'）\n\n**SASコード例（SDTM PCドメイン作成）:**\n```sas\n/* 生PKデータ例 */\ndata raw_pk_data;\n    infile datalines delimiter=',';\n    input SubjectID $ SampleTime $ Analyte $ Concentration SampleUnit $ StudyDay $ TimePoint $;\n    datalines;\nSUBJ001,00:00,DrugA,10.5,ng/mL,Day1,PREDOSE\nSUBJ001,01:00,DrugA,25.3,ng/mL,Day1,1HR POSTDOSE\nSUBJ001,02:00,DrugA,30.1,ng/mL,Day1,2HR POSTDOSE\nSUBJ002,00:00,DrugA,9.8,ng/mL,Day1,PREDOSE\nSUBJ002,01:00,DrugA,22.1,ng/mL,Day1,1HR POSTDOSE\n;\nrun;\n\n/* SDTM PCドメインへのマッピング */\ndata sdtm.pc;\n    set raw_pk_data;\n    length USUBJID $ 8 PCSEQ 8 PCDTC $ 20 PCTPT $ 20 PCORRES $ 20 PCORRESU $ 8 PCSPCCAT $ 20 PCSPEC $ 20;\n    length PCTEST $ 40 PCTESTCD $ 8 PCSTRESN 8 PCSTRESU $ 8;\n\n    USUBJID = SubjectID;\n    PCSEQ = _N_; /* 各被験者・タイムポイントごとにユニークな値 */\n\n    /* PCDTCはベースライン日とSampleTimeを結合して生成 */\n    /* 例: ベースライン日が2023-01-01の場合 */\n    PCDTC = \n\n## CDISC実務に役立つリソース\n\nこの記事の内容をさらに深めるために、以下のリソースが役立ちます。\n\n- **[Amazon CDISC書籍](https://www.amazon.co.jp?tag=musclelove07-22)** - CDISC・臨床データ標準の参考書\n- **[Udemy SAS講座](https://www.udemy.com)** - 動画で学ぶCDISC実装\n- **[楽天 医薬品開発書籍](https://www.rakuten.co.jp)** - 製薬・臨床開発の参考書\n\n*上記リンクからご利用いただくと、サイト運営の支援になります。*\n",
  "hero_emoji": "📝",
  "hero_gradient": "135deg",
  "meta_description": "PKデータ申請の鍵：SDTM/ADaMでワークフロー改善！\n\nCDISC Standards Navigatorへようこそ！ベテランSASプログラマーの私が、PKデータ（薬物動態データ）のSDTMマッピング、ADaM解析、そして申請ワーク",
  "tags": [
    "自動生成",
    "ブログ",
    "記事",
    "SEO",
    "最新"
  ],
  "slug": "pksdtmadam",
  "keyword": "PKデータ, SDTM, ADaM, ワークフロー改善",
  "category": "SDTM実装ガイド",
  "generated_at": "2026-04-06T05:23:41.740015",
  "has_affiliate": true,
  "affiliate_count": 3,
  "eyecatch_url": "https://images.unsplash.com/photo-1532187863486-abf9dbad1b69?w=1200&h=630&fit=crop&auto=format&q=80",
  "eyecatch_credit": "Photo from [Unsplash](https://unsplash.com/)"
}