{
  "title": "MIDDで癌治療の用量選択を最適化：規制当局と臨床データ活用の最新動向",
  "content": "# MIDDで癌治療の用量選択を最適化：規制当局と臨床データ活用の最新動向\n\n![MIDDで癌治療の用量選択を最適化：規制当局と臨床データ活用の最新動向](https://images.unsplash.com/photo-1454165804606-c3d57bc86b40?w=1200&h=630&fit=crop&auto=format&q=80)\n\n*Photo from [Unsplash](https://unsplash.com/)*\n\n\n## この記事でわかること\n*   MIDD（モデル主導型医薬品開発）が癌治療の用量選択にどう役立つか理解できます。\n*   FDAとPMDAにおけるMIDDおよび臨床データ活用の最新規制動向を把握できます。\n*   CDISC標準（SDTM, ADaM）を用いたMIDDデータ提出の実践的なSASプログラミング例を知ることができます。\n*   海外事例から学び、日本の実務でMIDDを効果的に導入するための具体的なアドバイスを得られます。\n*   規制当局への電子データ提出（eCTD）における注意点やバリデーションのヒントを習得できます。\n\n## 結論から言うと\nMIDD（モデル主導型医薬品開発）は癌治療における用量選択の精度を高め、開発効率を大幅に向上させる強力なアプローチとして、世界的に注目されています。FDAやPMDAといった規制当局もその活用を強く推奨しており、効率的な医薬品開発には、臨床データ活用とCDISC標準に準拠した高品質な電子データ提出が不可欠です。特に癌治療分野では、リアルワールドデータ（RWD）やADaM（解析データモデル）を活用した解析が、患者さんのQOL向上と効果的な治療選択に繋がる鍵となります。\n\n## MIDD（モデル主導型医薬品開発）とは？\nMIDD（Model-Informed Drug Development）とは、薬物動態（PK）や薬力学（PD）、疾患のメカニズムといった情報を数学的なモデルとして構築し、シミュレーションを通じて医薬品開発の様々な意思決定を支援するアプローチです。これは、単にデータを集めるだけでなく、そのデータから「なぜそうなるのか」というメカニズムを理解し、将来を予測しようとするものです。\n\n特に癌治療における用量選択は非常に複雑です。患者さんの体格、年齢、遺伝的背景、腫瘍の種類や進行度、併用薬など多くの要因が薬の効果と安全性に影響を及ぼします。MIDDはこれらの複雑な要素をモデルに組み込むことで、限られた臨床データから最適な用量・用法を推定し、臨床試験の効率化や成功確率の向上に貢献します。\n\n例えば、\n*   **PK/PDモデリング（薬物動態・薬力学モデリング）:** 薬が体内でどのように吸収・分布・代謝・排泄されるか（PK）、そして薬が体にどのような影響を与えるか（PD）を数学的に記述し、個々の患者さんや特定の集団における薬の挙動を予測します。これにより、効果的かつ安全な用量を導き出すことができます。\n*   **PBPKモデリング（生理学的薬物動態モデリング）:** 生理学的な情報を基に、臓器ごとの血流量や酵素活性などを考慮して薬の体内動態を予測する高度なモデルです。小児や腎機能・肝機能障害患者など、データが少ない特殊集団での用量設定に特に有用です。\n\nこのようにMIDDは、単なる統計解析を超えて、薬の科学的理解を深め、より根拠に基づいた意思決定を可能にする強力なツールと言えます。\n\n## 実務での使い方・実装手順\nMIDDを活用するためには、質の高い臨床データと、それをモデル解析に適した形式で提供するデータプログラミングが不可欠です。ここでは、CDISC標準（Clinical Data Interchange Standards Consortium）に準拠したデータセット作成のポイントとSASコード例をご紹介します。\n\n### ステップ1：CDISC SDTM（試験データ提出標準）へのマッピング\nMIDDで最も重要となるデータの一つが、血中薬物濃度データ（PKデータ）です。これはSDTMのPC（薬物濃度）ドメインにマッピングされます。\n\n**SASコード例：PCドメイン作成の基本**\n以下のコードは、生データからPCドメインに必要な変数をマッピングする基本的な例です。\n\n```sas\n/* 生データ (RAW_PK_DATA) の想定 */\n/* SUBJECTID: 被験者識別子 */\n/* VISIT: 来院 */\n/* PCTPTNUM: 測定時点番号 */\n/* PCTPT: 測定時点 */\n/* PCCBLFL: 採血基準点フラグ (Y/N) */\n/* PCORRES: 原測定値 */\n/* PCORRESU: 原測定単位 */\n/* PCSTRESN: 標準測定値（数値） */\n/* PCSTRESU: 標準測定単位 */\n/* PCLOC: 測定部位 */\n/* PCSPCCMP: 検体構成要素 */\n/* PCELTM: 採血からの経過時間 (数値) */\n/* PCELTMU: 採血からの経過時間単位 */\n/* PCDTC: 採血日時 */\n/* PCSTAT: 記録状態 */\n\nDATA sdta.pc;\n  SET rawdata.raw_pk_data;\n\n  /* SDTM必須変数 */\n  STUDYID = 'STUDY001'; /* 試験識別子 */\n  DOMAIN = 'PC';\n  USUBJID = CATS(STUDYID, '-', SUBJECTID); /* ユニーク被験者識別子 */\n  PCSEQ = _N_; /* 連続番号 */\n\n  /* コア変数のマッピング */\n  PCTESTCD = 'DRUGCONC'; /* 検査コード (例: 薬物濃度) */\n  PCTEST = 'Drug Concentration'; /* 検査名 */\n  PCORRES = PUT(PCORRES, 8.); /* 原測定値 (文字型に変換) */\n  PCORRESU = 'ng/mL'; /* 原測定単位 */\n  PCSTRESN = PCORRES; /* 標準測定値 (数値) */\n  PCSTRESU = 'ng/mL'; /* 標準測定単位 */\n\n  /* 測定時点関連 */\n  VISIT = VISIT;\n  PCTPTNUM = PCTPTNUM;\n  PCTPT = PCTPT;\n  PCDTC = INPUT(PCDTC, YYMMDD10.); /* 日付変換 (YYYY-MM-DD) */\n  FORMAT PCDTC YYMMDD10.;\n  PCELTM = PCELTM;\n  PCELTMU = 'HOUR';\n\n  /* その他の必須・推奨変数 */\n  PCLOC = 'PLASMA'; /* 検体部位 */\n  PCSPCCMP = 'WHOLE BLOOD'; /* 検体構成要素 */\n  PCCBLFL = PCCBLFL; /* 採血基準点フラグ */\n  PCSTAT = 'COMPLETED'; /* 記録状態 */\n\n  LABEL STUDYID = 'Study Identifier'\n        DOMAIN = 'Domain Abbreviation'\n        USUBJID = 'Unique Subject Identifier'\n        PCSEQ = 'Sequence Number'\n        PCTESTCD = 'Planned Assay Type Code'\n        PCTEST = 'Planned Assay Type'\n        PCORRES = 'Result or Finding in Original Units'\n        PCORRESU = 'Original Units'\n        PCSTRESN = 'Standardized Result in Numeric Format'\n        PCSTRESU = 'Standardized Result Units'\n        VISIT = 'Visit Name'\n        PCTPTNUM = 'Planned Time Point Number'\n        PCTPT = 'Planned Time Point Name'\n        PCDTC = 'Date/Time of Specimen Collection'\n        PCELTM = 'Planned Elapsed Time from Reference'\n        PCELTMU = 'Planned Elapsed Time Unit'\n        PCLOC = 'Specimen Location'\n        PCSPCCMP = 'Specimen Component'\n        PCCBLFL = 'Baseline Flag'\n        PCSTAT = 'Completion Status';\n\nRUN;\n```\n（専門用語説明: **SDTM（Study Data Tabulation Model）**は、規制当局に提出される臨床試験の生データを標準化するためのモデルです。**PCドメイン**は、被験者の血中薬物濃度など、薬物動態に関する測定結果を記録します。）\n\n### ステップ2：CDISC ADaM（解析データモデル）による解析用データセットの作成\nSDTMデータはモデル解析に直接使用できない場合が多いため、MIDDに適したADaMデータセットを作成します。これには、PKパラメータの導出や、共変量（年齢、体重、肝機能など）の統合、シミュレーション結果の結合などが含まれます。\n\n**SASコード例：ADaM ADPC（解析用薬物濃度）データセットの作成**\n以下の例では、PCドメインから必要な情報と共変量（例：体重）を結合し、解析に適したADPCデータセットを作成します。\n\n```sas\n/* SDTM.PCとSDTM.DM (人口統計) を結合 */\nPROC SQL;\n  CREATE TABLE adpc.adpc01 AS\n  SELECT\n    T1.STUDYID,\n    T1.USUBJID,\n    T1.PCTPTNUM,\n    T1.PCELTM,\n    T1.PCELTMU,\n    T1.PCSTRESN AS DV, /* 従属変数 (Dependent Variable) としてDVにリネーム */\n    T2.AGE,\n    T2.SEX,\n    T2.WEIGHT /* DMドメインから体重を結合する例 */\n  FROM\n    sdta.pc T1\n  LEFT JOIN\n    sdta.dm T2\n  ON\n    T1.USUBJID = T2.USUBJID\n  WHERE\n    T1.PCTESTCD = 'DRUGCONC' AND T1.PCSTRESN IS NOT NULL;\nQUIT;\n\n/* ADaM必須変数 (ADSL, ADPC) */\nDATA adpc.adpc02;\n  SET adpc.adpc01;\n\n  ADTM = T1.PCDTC; /* 解析用日付時間 */\n  PARAMCD = 'DRUGCONC';\n  PARAM = 'Drug Concentration (ng/mL)';\n  AVAL = DV; /* 解析用値 */\n\n  /* MIDDに有用な追加変数 (例: 時間の変換など) */\n  TIME = PCELTM; /* 経過時間 */\n  TIMEU = PCELTMU; /* 経過時間単位 */\n\n  LABEL ADTM = 'Analysis Date/Time'\n        PARAMCD = 'Parameter Code'\n        PARAM = 'Parameter Description'\n        AVAL = 'Analysis Value'\n        DV = 'Dependent Variable (Drug Concentration)'\n        TIME = 'Analysis Time'\n        TIMEU = 'Analysis Time Unit';\n\nRUN;\n```\n（専門用語説明: **ADaM（Analysis Data Model）**は、統計解析やモデル解析のために、SDTMデータをさらに加工・集約した解析用データセットの標準です。**ADPCドメイン**は、PK/PD解析に特化したデータセットです。）\n\n### ステップ3：Define-XMLの作成\n作成したSDTMおよびADaMデータセットの構造、変数、ロジック、コードリストなどを詳細に記述したDefine-XML（データセットのメタデータ定義ファイル）の作成は必須です。これは規制当局が提出されたデータを理解し、バリデーションを行う上で非常に重要です。\n\nDefine-XMLは、SASのProc CDISC_DEFINEなどのツールや、Pinnacle 21 Enterpriseのような専用ツールを使って自動生成・編集できます。全ての変数にラベル、タイプ、コードリスト、派生ロジックなどを正確に記載する必要があります。\n\n## 海外の最新動向\nMIDDは、医薬品開発の効率化と患者中心のアプローチを推進する上で、国際的な規制当局から高い関心と支持を受けています。\n\n### FDA（米国食品医薬品局）の動向\nFDAは、MIDDの活用を積極的に奨励しており、特に癌治療を含む多くの疾患領域でその適用を推進しています。\n*   **MIDDに関するガイダンス:** FDAは「Guidance for Industry: Exposure-Response Relationships — Study Design, Data Analysis, and Regulatory Applications」を公開し、薬物暴露-反応関係の解析の重要性を示しています。また、より広範なMIDDアプローチに関する議論を「MIDD Approaches for Drug Development」として進めています。これらは、PK/PDモデルやシミュレーションを用いた用量選択の最適化、臨床試験デザインの合理化を促すものです。\n    *   出典: [FDA Guidance for Industry: Exposure-Response Relationships](https://www.fda.gov/regulatory-information/search-fda-guidance-documents/exposure-response-relationships-study-design-data-analysis-and-regulatory-applications)\n    *   出典: [FDA Model-Informed Drug Development](https://www.fda.gov/drugs/regulatory-science-research-and-education/model-informed-drug-development-midd)\n*   **リアルワールドデータ（RWD）の活用:** 癌治療では、従来の臨床試験だけでなく、電子カルテやレジストリから得られるRWDをMIDDと組み合わせて活用する動きが加速しています。RWDは、より多様な患者集団における薬の効果と安全性を評価し、用量選択の裏付けを強化するために利用されます。FDAはRWD/RWE（リアルワールドエビデンス）の活用のためのフレームワークを整備しています。\n*   **CDISC標準と電子データ提出:** FDAへの申請では、CDISC標準（SDTM, ADaM, Define-XML, CT）に準拠した電子データ提出が必須です。特にeCTD（電子共通技術文書）の一部として提出される「Study Data Technical Conformance Guide」は、データの提出形式やバリデーション要件について詳細に規定しており、MIDD関連データもこれに則って提出する必要があります。\n    *   出典: [FDA Study Data Technical Conformance Guide](https://www.fda.gov/industry/studies-evaluations-recommendations/study-data-technical-conformance-guide)\n\n### EMA（欧州医薬品庁）の動向\nEMAもMIDDアプローチに高い関心を示し、医薬品開発におけるモデリング＆シミュレーションの利用を推奨しています。\n*   **PKデータ報告に関するガイドライン:** EMAは「Guideline on the reporting of pharmacokinetic data in applications for marketing authorisation」を通じて、PKデータの収集、解析、報告に関する具体的な要件を定めています。これはMIDDアプローチの基盤となるものです。\n    *   出典: [EMA Guideline on the reporting of pharmacokinetic data](https://www.ema.europa.eu/en/documents/scientific-guideline/guideline-reporting-pharmacokinetic-data-applications-marketing-authorisation-revision-2_en.pdf)\n*   EMAは、Qualification OpinionやScientific Adviceを通じて、MIDDの革新的な活用を支援しており、特に新薬開発の早期段階での意思決定を助けるツールとしてMIDDを位置づけています。\n\n### CDISCの役割と更新情報\nCDISCは、MIDDに必要な臨床データの標準化に不可欠な役割を担っています。\n*   SDTMやADaMは、PKデータ、PDデータ、共変量データなどを整理し、モデル解析ツール（例: NONMEM, R, Monolix）への入力データとして使いやすい形式を提供します。\n*   CDISC Controlled Terminology（CT）は、MIDD関連の変数や値を標準化し、データの一貫性と相互運用性を保証します。\n*   今後、MIDDで活用される新たなデータタイプ（例: デジタルバイオマーカーデータ）に対応するための標準化の議論も進んでいます。\n\n## 日本での対応ポイント\nPMDA（医薬品医療機器総合機構）も、FDAやEMAと同様にMIDDの重要性を認識し、その活用を推進しています。\n\n### PMDAの動向と要件\n*   **MIDDへの関心と推進:** PMDAは、「医薬品評価におけるMIDDの活用に関する意見募集」などを行い、MIDDが医薬品開発の効率化と個別化医療の実現に貢献することへの期待を示しています。特に、開発の早期段階での用量設定や、小児、高齢者、腎・肝機能障害患者といった特殊集団における用法・用量検討において、MIDDの活用を推奨しています。\n    *   出典: [PMDA 医薬品評価におけるモデル主導型医薬品開発（MIDD）の活用に関する意見募集](https://www.pmda.go.jp/files/000251755.pdf)\n*   **FDAとの整合性と日本固有の要件:** PMDAはFDAのガイダンス内容を参考にしつつ、日本の医療状況や薬事法規に合わせた検討を行っています。基本的な考え方は共通していますが、提出資料の書式や細部の要件で違いが生じる場合があります。申請前相談などを活用し、PMDAの期待値を正確に理解することが重要です。\n*   **電子データ提出要件:** PMDAへの申請においても、2014年以降、CDISC標準に準拠した電子データ（SDTM, ADaM, Define-XML, CT）の提出が必須です。「電子データ提出に関する技術的要件について」（通称：PMDA Study Data Technical Conformance Guideの日本語版）が公開されており、提出データのフォーマットやバリデーションに関する詳細が記載されています。MIDDに用いるデータも、この要件に則って準備する必要があります。\n    *   出典: [PMDA 電子データ提出に関する技術的要件について](https://www.pmda.go.jp/rs-shinsatokusei/shinsatou/e-data.html)\n\n**FDAとPMDAの電子データ提出要件の比較**\n\n| 項目                 | FDA (米国)                                                              | PMDA (日本)                                                             |\n| :------------------- | :---------------------------------------------------------------------- | :---------------------------------------------------------------------- |\n| **提出形式**         | eCTD (Electronic Common Technical Document)                             | eCTD                                                                    |\n| **データ標準**       | CDISC SDTM, ADaM, SEND, Define-XML, CT (必須)                           | CDISC SDTM, ADaM, SEND, Define-XML, CT (必須)                           |\n| **バリデーションツール** | Pinnacle 21 Community/Enterpriseが事実上の標準                       | Pinnacle 21などのバリデーションツール使用を推奨                        |\n| **技術的要件**       | Study Data Technical Conformance Guide (SDTCG)                          | 「電子データ提出に関する技術的要件について」 (SDTCGの和訳版に相当)     |\n| **独自解釈/補足**    | 個別のガイダンスやQ&Aで詳細が示される                                   | 国内の実務慣行や法的要件に合わせたQ&Aや説明文書が存在                  |\n| **MIDDデータ**       | PK, PDデータはCDISC標準に準拠し、ADaMを駆使して解析用データを作成・提出 | PK, PDデータはCDISC標準に準拠し、ADaMを駆使して解析用データを作成・提出 |\n\n### 国内実務へのアドバイス\n1.  **早期からのCDISC対応:** MIDDを活用する計画がある場合、臨床試験デザインの段階からPK/PDデータの収集計画とCDISC SDTMへのマッピングを意識することが重要です。これにより、後工程でのデータ変換作業を最小限に抑えられます。\n2.  **専門家との連携:** PK/PDモデリングの専門家、統計家、SASプログラマー、臨床開発担当者が密に連携し、MIDD戦略を共有することが成功の鍵です。特にプログラマーは、モデラーが解析しやすいADaMデータセットを作成する上で重要な役割を担います。\n3.  **申請前相談の積極活用:** PMDAへの申請を検討する際には、MIDDの活用計画やデータ提出方法について、事前にPMDAに相談（対面助言など）することをお勧めします。これにより、予期せぬ指摘や手戻りを防ぐことができます。\n\n## よくあるエラーと対処法\nMIDD関連のデータ作成と提出において、SASプログラマーが遭遇しやすいエラーと対処法をまとめました。\n\n### 1. Pinnacle 21バリデーションエラー\nCDISC標準に準拠しているかを確認するPinnacle 21（CDISCバリデーションツール）は、MIDDデータの提出においても重要な役割を果たします。\n*   **よくあるエラー例:**\n    *   **PCドメインの必須変数欠落:** PCSEQ（連続番号）、PCTESTCD（検査コード）、PCSTRESN（標準測定値）などの必須変数が欠落している。\n    *   **PCDTCの書式不一致:** 日付/時刻変数PCDTCが'YYYY-MM-DDThh:mm'などのSDTMで指定されたISO 8601書式でない。\n    *   **ADaMの必須変数欠落:** ADSL（解析被験者データ）やADPCで、ADTM（解析日付/時間）、PARAMCD（パラメータコード）、AVAL（解析値）などの必須変数が欠落している。\n    *   **Define-XMLの不整合:** データセット内の変数とDefine-XMLの定義（データタイプ、ラベル、コードリスト、派生ロジックなど）が一致しない。特にADaMのDerived変数（派生変数）のロジック記載漏れはよくある間違いです。\n*   **対処法:**\n    *   **CDISC IG（Implementation Guide）の熟読:** 各ドメインの定義、必須変数、許容値、推奨事項などを徹底的に確認します。\n    *   **バリデーションレポートの活用:** Pinnacle 21のレポートを詳細に確認し、エラーメッセージを一つずつ解消していきます。特にErrorレベルの指摘は無視できません。\n    *   **Define-XMLの正確な作成:** SASで作成したデータセットの内容と、Define-XMLの記述内容が完全に一致するように注意します。派生変数のロジック（`<Method>`タグ）は、誰が見ても理解できるように具体的に記載します。\n\n### 2. PKパラメータのderive方法の不備\nMIDDでは、PKパラメータ（AUC: 薬物濃度曲線下面積、Cmax: 最高血中薬物濃度、Tmax: 最高血中薬物濃度到達時間など）をderiveし、ADaM ADPP（解析用PKパラメータ）ドメインとして提出することが一般的です。\n*   **よくあるエラー例:**\n    *   **欠測値の扱い:** AUC計算時に一部の測定時点が欠測している場合の補完方法や、計算可否の判断基準が不明確。\n    *   **計算方法の不一致:** 非コンパートメント解析（NCA）の場合、台形公式の適用範囲や外挿方法が標準と異なる。\n    *   **単位の不統一:** deriveしたパラメータの単位が、CDISC Controlled Terminologyや業界標準と異なる。\n*   **対処法:**\n    *   **SOP（標準業務手順書）の確認:** PKパラメータのderive方法に関するSOPを遵守します。\n    *   **統計家・PK専門家との連携:** 計算ロジックや欠測値の扱いついて、専門家と合意形成を行います。\n    *   **SASのPKモジュール/マクロの活用:** SAS/STATのPROC NCAなどの機能や、信頼性の高いPK解析用マクロを利用し、計算の正確性を確保します。\n\n### 3. 時間変数の不一致\nPK/PD解析において、時間変数の定義は非常に重要です。\n*   **よくあるエラー例:**\n    *   **参照時点のずれ:** 投与開始からの時間なのか、採血からの時間なのかなど、参照点が不正確。\n    *   **単位の不統一:** 時間単位（例: 時間、分、日）がドメインや変数間で混在している。\n*   **対処法:**\n    *   **CDISC SDTM/ADaMの規定に準拠:** PCELTM（採血からの経過時間）、ASTDTM（解析開始日時）などの変数の定義と単位を確認します。\n    *   **一貫した時間処理ロジックの適用:** データ処理の全工程で、時間変数の単位と参照点を統一するロジックを適用します。\n\n## よくある質問（FAQ）\n\n### Q1: MIDDは全ての癌治療開発に必須ですか？\n**A1:** MIDDは全ての癌治療開発において必須とされているわけではありませんが、多くの場面でその活用が推奨されています。特に、医薬品開発の早期段階での用量選択、バイオマーカーを用いた患者層別化、小児や希少疾患患者などデータが限られる特殊集団での用量設定において、MIDDは極めて有用なアプローチとして評価されています。規制当局も、その活用を奨励しており、開発の合理化に繋がる可能性を秘めています。\n\n### Q2: MIDDを始めるには、どのような準備が必要ですか？\n**A2:** MIDDを効果的に導入するためには、いくつかの準備が必要です。まず、専門知識を持つPK/PDモデラー、生物統計家、臨床開発担当者、そしてCDISCデータプログラマーとの密な連携が不可欠です。次に、臨床試験デザインの段階から、MIDDに必要なPK/PDデータや関連する共変量（例: 遺伝子情報、バイオマーカー）の収集計画を立て、CDISC標準に準拠したデータ収集・管理体制を構築することが重要です。\n\n### Q3: SASプログラマーとして、MIDDにどう貢献できますか？\n**A3:** SASプログラマーはMIDDにおいて非常に重要な役割を担います。具体的には、\n1.  **高品質なCDISC SDTM/ADaMデータセットの作成:** PK生データや臨床試験データをSDTM PC/DM/LBなどのドメインに正確にマッピングし、さらにモデル解析に適したADaM ADPC/ADPPデータセットを作成します。\n2.  **解析用データセットの整備:** モデル解析ツール（例: NONMEM, R, Monolix）が読み込みやすい形式にデータを加工・変換します。\n3.  **Define-XMLの作成・維持:** データセットのメタデータを正確に記述し、規制当局が提出データを円滑にレビューできるよう支援します。\n4.  **バリデーションの実施:** Pinnacle 21などのツールを用いて、CDISC標準への準拠性を確認し、エラーを修正します。\nプログラマーのスキルと知見は、MIDDの成功に直結します。\n\n## CDISC実務に役立つリソース\n\nこの記事の内容をさらに深めるために、以下のリソースが役立ちます。\n\n- **[Amazon CDISC書籍](https://www.amazon.co.jp?tag=musclelove07-22)** - CDISC・臨床データ標準の参考書\n- **[Udemy SAS講座](https://www.udemy.com)** - 動画で学ぶCDISC実装\n- **[楽天 医薬品開発書籍](https://www.rakuten.co.jp)** - 製薬・臨床開発の参考書\n\n*上記リンクからご利用いただくと、サイト運営の支援になります。*\n\n\n## まとめ\n本記事では、MIDD（モデル主導型医薬品開発）が癌治療における用量選択の最適化と医薬品開発の効率化にいかに貢献するか、そして規制当局（FDA/PMDA）の最新動向とCDISCデータ活用の重要性について解説しました。\n\n結論として、MIDDは、癌治療薬の開発において、科学的根拠に基づいた用量選択を可能にし、患者さんの安全性と有効性を高める上で不可欠なアプローチです。FDAもPMDAもMIDDの活用を強く推奨しており、そのためにはCDISC標準に準拠した高品質な臨床データ活用と電子データ提出が求められます。\n\n私たちSASプログラマーは、SDTMやADaMといったCDISC標準を駆使し、モデル解析に適したデータセットを整備することで、MIDDの成功に大きく貢献できます。海外の最新トレンドを常にキャッチアップし、日本の実務に落とし込むことで、より効率的で患者さんに優しい医薬品開発の実現に寄与していきましょう。\n",
  "meta_description": "MIDD（モデル主導型医薬品開発）による癌治療の用量選択最適化に焦点を当て、FDA/PMDA規制当局の最新要件とCDISCデータ活用術をベテランSASプログラマーが解説します。",
  "tags": [
    "MIDD",
    "癌治療",
    "用量選択",
    "規制当局",
    "CDISC"
  ],
  "slug": "midd-cancer-dose-selection-regulatory-cdisc",
  "faq": [
    {
      "question": "MIDDは全ての癌治療開発に必須ですか？",
      "answer": "MIDDは全ての癌治療開発において必須とされているわけではありませんが、多くの場面でその活用が推奨されています。特に、医薬品開発の早期段階での用量選択、バイオマーカーを用いた患者層別化、小児や希少疾患患者などデータが限られる特殊集団での用量設定において、MIDDは極めて有用なアプローチとして評価されています。規制当局も、その活用を奨励しており、開発の合理化に繋がる可能性を秘めています。"
    },
    {
      "question": "MIDDを始めるには、どのような準備が必要ですか？",
      "answer": "MIDDを効果的に導入するためには、いくつかの準備が必要です。まず、専門知識を持つPK/PDモデラー、生物統計家、臨床開発担当者、そしてCDISCデータプログラマーとの密な連携が不可欠です。次に、臨床試験デザインの段階から、MIDDに必要なPK/PDデータや関連する共変量（例: 遺伝子情報、バイオマーカー）の収集計画を立て、CDISC標準に準拠したデータ収集・管理体制を構築することが重要です。"
    },
    {
      "question": "SASプログラマーとして、MIDDにどう貢献できますか？",
      "answer": "SASプログラマーはMIDDにおいて非常に重要な役割を担います。具体的には、\n1.  高品質なCDISC SDTM/ADaMデータセットの作成: PK生データや臨床試験データをSDTM PC/DM/LBなどのドメインに正確にマッピングし、さらにモデル解析に適したADaM ADPC/ADPPデータセットを作成します。\n2.  解析用データセットの整備: モデル解析ツール（例: NONMEM, R, Monolix）が読み込みやすい形式にデータを加工・変換します。\n3.  Define-XMLの作成・維持: データセットのメタデータを正確に記述し、規制当局が提出データを円滑にレビューできるよう支援します。\n4.  バリデーションの実施: Pinnacle 21などのツールを用いて、CDISC標準への準拠性を確認し、エラーを修正します。\nプログラマーのスキルと知見は、MIDDの成功に直結します。"
    }
  ],
  "hero_emoji": "📝",
  "hero_gradient": "135deg",
  "keyword": "MIDD, 癌治療, 用量選択, 規制当局, 臨床データ活用",
  "category": "規制当局対応",
  "generated_at": "2026-04-08T05:12:12.635851",
  "has_affiliate": true,
  "affiliate_count": 3,
  "eyecatch_url": "https://images.unsplash.com/photo-1454165804606-c3d57bc86b40?w=1200&h=630&fit=crop&auto=format&q=80",
  "eyecatch_credit": "Photo from [Unsplash](https://unsplash.com/)"
}