{
  "title": "オンコロジー用量設定：MIDDと規制科学最前線",
  "content": "# オンコロジー用量設定：MIDDと規制科学の最前線\n\n![オンコロジー用量設定：MIDDと規制科学最前線](https://images.unsplash.com/photo-1450101499163-c8848c66ca85?w=1200&h=630&fit=crop&auto=format&q=80)\n\n*Photo from [Unsplash](https://unsplash.com/)*\n\n\n## この記事でわかること\n*   MIDD（Model-Informed Drug Development）がオンコロジー領域の用量設定にどのように貢献するか\n*   海外（FDA/EMA）の最新規制動向と、日本（PMDA）での対応ポイント\n*   規制科学の観点から、効率的な医薬品開発と承認申請を成功させるための実践的アプローチ\n*   CDISC標準を活用したMIDD関連データの提出要件とSASプログラミングの実装例\n*   よくあるバリデーションエラーとその対処法\n\n## 結論から言うと\nオンコロジー（腫瘍学）領域における用量設定では、MIDD（モデルベース医薬品開発）と規制科学の活用が、開発効率化と承認成功の鍵となります。FDA/PMDA双方でこれらのアプローチが重視されており、CDISC標準に準拠した電子データ提出が求められます。特にFDAの「Project Optimus」に代表されるように、治療効果と安全性のバランスを最適化するデータに基づく意思決定が不可欠です。\n\n## MIDDと規制科学とは？\n\n### MIDD（Model-Informed Drug Development）とは？\nMIDD（モデルベース医薬品開発）は、医薬品開発の全段階において、数理モデルとシミュレーションを用いて科学的根拠に基づいた意思決定を支援するアプローチです。具体的には、薬物動態（PK）モデル、薬力学（PD）モデル、疾患モデルなどを構築し、臨床試験データの解釈、次相試験デザインの最適化、用量設定の最適化、試験成績の外挿（Extrapolation）などに活用されます。\n\nオンコロジー領域では、個別化医療の進展や希少疾患が多いという特性から、限られた患者データから最適な用量やレジメンを決定するためにMIDDの重要性が特に高まっています。例えば、小児がんの用量設定において成人データからの外挿を検討する場合や、バイオマーカーに基づいたサブグループ解析を行う場合に、MIDDが有効なツールとなります。\n\n### 規制科学とは？\n規制科学とは、科学的知識を規制上の意思決定に応用し、公衆衛生の保護・向上に資する新たな科学技術やツールの創出・評価・活用を促進する学問分野です。医薬品開発においては、革新的な技術や評価手法を適切に規制に取り入れ、より効率的かつ安全な医薬品開発を実現することを目指します。\n\nオンコロジーの用量設定における規制科学の役割は、MIDDを含む先進的な科学的手法を規制当局がどのように評価し、承認プロセスに組み込むかを明確にすることです。これにより、開発企業は明確なガイドラインの下で革新的なアプローチを採用しやすくなります。\n\n## 実務での使い方・実装手順\nオンコロジーの用量設定において、MIDDのアプローチを規制当局に提出する際には、CDISC（Clinical Data Interchange Standards Consortium）標準に準拠したデータ提出が不可欠です。ここでは、SDTM（Study Data Tabulation Model）とADaM（Analysis Data Model）の活用、およびSASコード例を交えて説明します。\n\n### 1. SDTMでのデータ収集と標準化\nPK/PDデータをMIDDに活用するためには、SDTMのPP（Pharmacokinetics Parameters）ドメイン、PC（Pharmacokinetics Concentrations）ドメイン、EX（Exposure）ドメイン、およびVS（Vital Signs）、LB（Laboratory Tests）、TU（Tumor Measurements）などのドメインが重要になります。正確なPK/PDモデリングを行うためには、測定されたデータ（PC）と投与情報（EX）が正確に紐づけられていることが必須です。\n\n**例：PK濃度データ（PC）と投与情報（EX）のマージ**\n以下のSASコードは、被験者、来院日、時間に基づき、PK濃度データ（PC）と投与情報（EX）を結合し、解析に必要な基盤データを作成する一例です。\n\n```sas\ndata work.pc_ex_merged;\n    merge sdtm.pc (in=a rename=(PCTPTNUM=EXPTNUM PCTPT=EXPT))\n          sdtm.ex (in=b keep=USUBJID EXTRT EXDOSE EXDOSU EXCBLFL)\n    ;\n    by USUBJID EXTRT EXPTNUM;\n    if a and b; /* 両方のデータセットに存在するレコードのみ */\n\n    /* PKモデリングに必要な変数を作成 */\n    if EXCBLFL = 'Y' then /* 採血フラグがYの場合のみ濃度値を使用 */\n        PCN_VAL = PCTESTCD;\n    else\n        PCN_VAL = .; /* 採血がない場合は濃度値を欠損値とする */\n\n    label PCN_VAL = \"PK Concentration Value\";\nrun;\n```\n\n### 2. ADaMでの解析用データセット作成\nMIDDにおける解析には、SDTMから派生したADaMデータセットが活用されます。特に、PopPK/PD解析や曝露反応関係解析に使用するデータセットは、ADaMの基本原則（Traceability, Analysis Ready）に従って作成する必要があります。例えば、用量反応解析のための曝露量（AUC、Cmaxなど）を計算し、それを主要評価項目や安全性データと結合したADaMデータセットを作成します。\n\n**例：曝露量と腫瘍縮小率を統合したADaMデータセット**\n```sas\ndata adam.adpexrs;\n    set work.exposure_summary; /* PK解析ソフトウェアから出力された曝露量データ */\n    merge adam.adtu_rsps (in=a keep=USUBJID AVAL ABLFL CHG)\n          adam.adsl (in=b keep=USUBJID ARM AGE SEX BW);\n    by USUBJID;\n\n    /* 曝露量と腫瘍縮小率を統合 */\n    if ABLFL = 'Y' then BASELINE_TUMOR = AVAL;\n    else TUMOR_CHANGE = CHG; /* ベースラインからの変化量 */\n\n    /* 用量設定に活用する指標を導出 */\n    DOSE_GROUP = cut(DOSE, 0, 50, 100, 200, 400, 800); /* 投与量によるグループ分け */\n    label DOSE_GROUP = \"Dose Group for Analysis\"\n          TUMOR_CHANGE = \"Tumor Change from Baseline (%)\";\nrun;\n```\n\n### 3. Define-XMLの作成\nSDTMおよびADaMの各データセット、派生変数の定義、そして解析アルゴリズムをDefine-XMLに記述することで、規制当局が提出されたデータを正確に理解し、再現可能な形で検証することができます。MIDD関連の複雑なモデルや解析手順についても、明確なメタデータを提供することが重要です。\n\n## 海外の最新動向\n\n### FDAの「Project Optimus」とMIDD\nFDA（米国食品医薬品局）は、オンコロジー領域の医薬品開発において、最適な用量設定の重要性を強調する「Project Optimus」を推進しています。これは、抗がん剤の承認申請時に、従来の最大耐量（MTD）だけでなく、治療効果と安全性の両面から最適な用量を特定することを目的としています。\n\n*   **要点:** 承認申請時に、複数の用量レベルでの曝露反応（Exposure-Response）情報に基づいた最適な用量選択の根拠を求める。\n*   **MIDDの活用:** Project Optimusでは、PopPK/PDモデリング、シミュレーション、臨床薬理学的解析など、MIDD手法の積極的な活用が奨励されています。これにより、限られたデータからでも最適な用量を推定し、それを裏付ける科学的根拠を提示することが期待されています。\n*   **データ提出:** CDISC標準（SDTM, ADaM）に準拠した電子データと共に、解析計画書、レポート、関連するモデルコードの提出が推奨されています。\n出典: [FDA Project Optimus](https://www.fda.gov/about-fda/center-drug-evaluation-and-research-cder/project-optimus)\n\n### EMA（欧州医薬品庁）のガイドライン\nEMAもまた、小児や特定の患者集団における用量設定の外挿に関するガイダンスを公表しており、MIDDの手法を効果的に活用することの重要性を強調しています。特に、希少疾患や特定のオンコロジー領域では、データの制約が大きいため、モデルベースのアプローチが不可欠とされています。\n\n*   **要点:** 既存データからの外挿を裏付けるためのMIDDアプローチの活用。Robustなモデリングとシミュレーションが求められる。\n*   **データ提出:** FDAと同様に、CDISC標準に基づく電子データ提出が求められ、特にeCTD（electronic Common Technical Document）のSection 5.3（Clinical Study Reports）には詳細な臨床薬理レポートを添付する必要があります。\n出典: [EMA scientific guidelines](https://www.ema.europa.eu/en/human-regulatory/research-development/scientific-guidelines)\n\n### CDISC標準の更新とMIDD\nCDISCは、MIDDのニーズに対応するため、新たなドメインや変数の追加、既存ドメインの改訂を継続的に行っています。例えば、モデリング解析に必要な情報をより詳細に記録できるよう、PP/PCドメインの変数が拡充されたり、関連するControlled Terminology（管理用語集）が更新されたりしています。最新のIG（Implementation Guide）やCT（Controlled Terminology）の確認は常に重要です。\n\n## 日本での対応ポイント\n\n### PMDA（医薬品医療機器総合機構）の要件\nPMDA（日本の医薬品医療機器総合機構）も、FDAやEMAと同様にMIDDおよび規制科学の重要性を認識しており、特にオンコロジー領域における用量設定において、その活用を推奨しています。\n\n*   **薬事戦略相談:** PMDAでは、開発早期から「薬事戦略相談」を利用し、MIDDを含む先進的な開発アプローチについて相談することが強く推奨されます。これにより、PMDAの評価方針を早期に理解し、データパッケージを最適化することが可能になります。\n*   **電子データ提出:** PMDAへの電子データ提出は、「医薬品の承認申請に係る提出資料の電子データに関する技術的要件について」（通称：電子データ提出ガイドライン）に基づいて行われます。FDAのStudy Data Technical Conformance Guideと類似していますが、細かな要件の違いがあるため注意が必要です。\n    *   **CDISC準拠:** SDTM、ADaM、Define-XMLの各ファイルを提出します。特に、MIDD解析に使用したADaMデータセットは、その導出過程をDefine-XMLで明確に記述する必要があります。\n    *   **PMDA固有の補足:** 臨床薬理試験（CTD Section 2.7.2）や臨床的安全性・有効性（2.7.3-2.7.4）の概要で、MIDDの活用とその結果を具体的に記述することが求められます。\n出典: [PMDA 医薬品申請電子データ提出](https://www.pmda.go.jp/review-services/drug-reviews/0002.html)\n\n### FDA/PMDA 電子データ提出要件の比較\n\n| 項目                 | FDA CDISC 提出                                         | PMDA 電子データ提出                                      |\n| :------------------- | :----------------------------------------------------- | :------------------------------------------------------- |\n| **提出形式**         | eCTD                                                   | eCTD                                                     |\n| **CDISC標準**        | 必須 (SDTM, ADaM, Define-XML)                          | 必須 (SDTM, ADaM, Define-XML)                            |\n| **バリデーションツール** | Pinnacle 21 Community/Enterprise推奨                 | Pinnacle 21 Community/Enterprise推奨                     |\n| **技術的要件**       | Study Data Technical Conformance Guide                 | 医薬品電子データ提出ガイドライン                         |\n| **タイムライン**     | 事前相談で提出時期や内容を調整                         | 薬事戦略相談等で事前相談を推奨                           |\n| **PMDA固有の注意点** | なし                                                   | 日本語のControlled Terminologyの利用可能性、PMDA用語集の確認 |\n\n\n### 日本の実務への落とし込みアドバイス\n*   **早期からの連携:** PMDAの薬事戦略相談を積極的に活用し、MIDDを用いた用量設定戦略について早期から協議することが、スムーズな承認への鍵です。\n*   **データの一貫性:** SDTMからADaMへのデータの流れ（Traceability）を確保し、Define-XMLでその全てを明確に記述することで、提出データの信頼性を高めます。\n*   **文書化の徹底:** MIDDモデルの構築過程、仮定、検証、および結果の解釈について、詳細な文書を作成し、CTDの臨床薬理章（Module 2.7.2, 5.3.1）に含めることが重要です。\n\n## よくあるエラーと対処法\n\n### Pinnacle 21エラー\nCDISC準拠の電子データ提出には、Pinnacle 21などのバリデーションツールが広く用いられます。MIDD関連データでよく見られるエラーとその対処法を以下に示します。\n\n*   **エラー例1: PK/PD関連ドメイン（PC, PP）の必須変数不足または不適切:**\n    *   **原因:** PCTESTCD, PCORRES, PCTPTNUM, EXTRTなどの必須変数が欠損しているか、Controlled Terminologyに準拠していない。\n    *   **対処法:** SDTM IGの各ドメイン定義を再確認し、必要な変数を正確にマッピングし、CDISC Controlled Terminologyの最新版を使用して値を標準化します。EXドメインとの連携も確認してください。\n*   **エラー例2: Define-XMLの記述不足:**\n    *   **原因:** ADaMで導出した複雑な変数の導出ロジックや、MIDDモデルで使用したパラメータの定義がDefine-XMLに記述されていない。\n    *   **対処法:** Define-XMLの`AnalysisMethod`や`Comment`セクションを積極的に活用し、SASコードやアルゴリズムの詳細を明確に記述します。派生変数の`Origin`や`Method`属性も正確に設定します。\n*   **エラー例3: ADaMデータセットのトレーサビリティ欠如:**\n    *   **原因:** ADaMデータセットの変数や値が、元のSDTMデータセットと明確に紐づいていない。\n    *   **対処法:** ADaM IGの原則に従い、SDTMからの派生関係を明確にするため、元のSDTM変数名を保持したり、`APERSDTM`などの参照変数を適切に設定したりします。\n\n### バリデーションTips\n*   **早期バリデーション:** データ作成の各段階でPinnacle 21等のツールを用いて早期にバリデーションを実施し、問題点を早期に発見・修正します。\n*   **PMDA固有の要件確認:** PMDAのガイドラインやFAQを定期的に確認し、FDA要件との差異を把握しておきます。\n*   **専門家との連携:** 生物統計家や臨床薬理学者と密に連携し、MIDD解析のニーズを理解した上でデータセットを設計します。\n\n## よくある質問（FAQ）\n\n### Q1: MIDDのデータ提出において、CDISC標準はどこまで必須ですか？\n**A1:** FDA/PMDA共に、MIDDを含むほとんどの医薬品承認申請において、SDTM、ADaM、Define-XMLのCDISC標準準拠が必須です。特に、MIDD解析に使用するPK/PD関連データや曝露反応データは、適切なSDTMドメイン（PC, PP, EX）から派生したADaMデータセットとして提出する必要があります。\n\n### Q2: オンコロジー領域の用量設定でMIDDを活用するメリットは何ですか？\n**A2:** MIDDを活用することで、限られた臨床データから最適な用量をより科学的に推定し、開発期間の短縮、臨床試験の効率化、患者さんへの負担軽減、そして最終的に承認成功の確率向上に繋がります。特にオンコロジーでは、従来の用量探索試験が困難な場合が多いため、MIDDは非常に有効なツールとなります。\n\n### Q3: FDAのProject Optimusは、日本のPMDAの審査にも影響しますか？\n**A3:** はい、大きな影響があります。PMDAも国際的な規制調和の動きを注視しており、FDAのProject Optimusが示すような「最適な用量設定の科学的根拠」は、日本の審査においても重視される傾向にあります。そのため、申請企業はFDAの動向を踏まえたデータパッケージと論拠を準備することが推奨されます。\n\n### Q4: MIDDでSAS以外のソフトウェアで解析した結果をCDISCデータとして提出できますか？\n**A4:** はい、可能です。MIDD解析自体はNONMEM、R、WinBUGSなど様々なソフトウェアで行われますが、その解析に使用した生データや解析結果を示すデータは、最終的にCDISC標準に準拠したSDTMおよびADaM形式で提出する必要があります。解析に使用したモデルコードや詳細なレポートも、補足資料として添付することが推奨されます。\n\n## CDISC実務に役立つリソース\n\nこの記事の内容をさらに深めるために、以下のリソースが役立ちます。\n\n- **[Amazon CDISC書籍](https://www.amazon.co.jp?tag=musclelove07-22)** - CDISC・臨床データ標準の参考書\n- **[Udemy SAS講座](https://www.udemy.com)** - 動画で学ぶCDISC実装\n- **[楽天 医薬品開発書籍](https://www.rakuten.co.jp)** - 製薬・臨床開発の参考書\n\n*上記リンクからご利用いただくと、サイト運営の支援になります。*\n\n\n## まとめ\n\nオンコロジー領域における医薬品開発は、その複雑性と患者さんのニーズの高さから、常に最新の科学的アプローチが求められています。MIDDと規制科学は、この課題を解決し、より効果的で安全な用量を迅速に特定するための強力なツールです。FDAのProject Optimusに代表される海外の最新動向を正確に理解し、PMDAの薬事戦略相談などを活用しながらCDISC標準に準拠した質の高い電子データを提出することが、日本の製薬企業・CROの実務担当者にとって成功への鍵となります。\n\n私たちCDISC Standards Navigatorは、今後も皆様の業務に役立つ最新情報を提供してまいります。ご質問やご相談があれば、お気軽にお問い合わせください。\n",
  "meta_description": "オンコロジー領域の用量設定におけるMIDDと規制科学の重要性を解説。FDA/PMDAの最新要件、CDISC提出方法、SASコード例、エラー対処法を網羅。",
  "tags": [
    "MIDD",
    "オンコロジー",
    "用量設定",
    "規制科学",
    "CDISC",
    "FDA",
    "PMDA",
    "SASプログラミング",
    "電子データ提出"
  ],
  "slug": "oncology-dose-setting-midd-regulatory-science",
  "faq": [
    {
      "question": "MIDDのデータ提出において、CDISC標準はどこまで必須ですか？",
      "answer": "FDA/PMDA共に、MIDDを含むほとんどの医薬品承認申請において、SDTM、ADaM、Define-XMLのCDISC標準準拠が必須です。特に、MIDD解析に使用するPK/PD関連データや曝露反応データは、適切なSDTMドメイン（PC, PP, EX）から派生したADaMデータセットとして提出する必要があります。"
    },
    {
      "question": "オンコロジー領域の用量設定でMIDDを活用するメリットは何ですか？",
      "answer": "MIDDを活用することで、限られた臨床データから最適な用量をより科学的に推定し、開発期間の短縮、臨床試験の効率化、患者さんへの負担軽減、そして最終的に承認成功の確率向上に繋がります。特にオンコロジーでは、従来の用量探索試験が困難な場合が多いため、MIDDは非常に有効なツールとなります。"
    },
    {
      "question": "FDAのProject Optimusは、日本のPMDAの審査にも影響しますか？",
      "answer": "はい、大きな影響があります。PMDAも国際的な規制調和の動きを注視しており、FDAのProject Optimusが示すような「最適な用量設定の科学的根拠」は、日本の審査においても重視される傾向にあります。そのため、申請企業はFDAの動向を踏まえたデータパッケージと論拠を準備することが推奨されます。"
    },
    {
      "question": "MIDDでSAS以外のソフトウェアで解析した結果をCDISCデータとして提出できますか？",
      "answer": "はい、可能です。MIDD解析自体はNONMEM、R、WinBUGSなど様々なソフトウェアで行われますが、その解析に使用した生データや解析結果を示すデータは、最終的にCDISC標準に準拠したSDTMおよびADaM形式で提出する必要があります。解析に使用したモデルコードや詳細なレポートも、補足資料として添付することが推奨されます。"
    }
  ],
  "hero_emoji": "📝",
  "hero_gradient": "135deg",
  "keyword": "MIDD, オンコロジー, 用量設定, 規制科学",
  "category": "規制当局対応",
  "generated_at": "2026-04-04T06:43:21.828787",
  "has_affiliate": true,
  "affiliate_count": 3,
  "eyecatch_url": "https://images.unsplash.com/photo-1450101499163-c8848c66ca85?w=1200&h=630&fit=crop&auto=format&q=80",
  "eyecatch_credit": "Photo from [Unsplash](https://unsplash.com/)"
}