{
  "title": "FDA/PMDA 承認審査：臨床データ提出の最新要件と実務",
  "content": "# FDA/PMDA 承認審査：臨床データ提出の最新要件と実務\n\n![FDA/PMDA 承認審査：臨床データ提出の最新要件と実務](https://images.unsplash.com/photo-1450101499163-c8848c66ca85?w=1200&h=630&fit=crop&auto=format&q=80)\n\n*Photo from [Unsplash](https://unsplash.com/)*\n\n\nCDISC Standards Navigatorへようこそ！ベテランSASプログラマーの私が、承認審査の鍵となる臨床データ提出について、FDAとPMDAの最新要件から実務上の注意点まで、深掘りしてお伝えします。特に、FDAのCDISC提出に関するStudy Data Technical Conformance Guide (TCG) の更新や、PMDAの電子データ提出要件は、日本の製薬企業・CROの実務担当者にとって避けて通れないテーマです。この記事では、海外のトレンドを翻訳・要約し、日本の規制環境に落とし込み、あなたの業務に役立つ情報を提供します。\n\n## この記事でわかること\n\n*   FDAとPMDA、両当局への臨床データ提出（承認審査）に関する最新の要件を網羅的に理解できます。\n*   CDISC（SDTM, ADaM, Define-XML, CT）標準の基本から、eCTDにおける位置づけまでを学べます。\n*   最新のFDA Study Data Technical Conformance Guide (TCG) やPMDAの電子データ提出ガイダンスの重要ポイントを把握できます。\n*   実務で役立つSASコード例や、データ提出におけるよくあるエラーとその対処法を知ることができます。\n*   FDAとPMDAのデータ提出要件の相違点を比較し、日本での適切な対応ポイントを明確にできます。\n\n## 結論から言うと\n\n結論から言うと、FDAおよびPMDAへの臨床データ提出は、CDISC標準に準拠した高品質な電子データが必須です。特に、FDAが発行するStudy Data Technical Conformance Guide (TCG) の最新要件とPMDAの電子データ提出ガイダンスを深く理解し、バリデーションツールを最大限に活用することが、承認審査を円滑に進める上で極めて重要です。両当局の要求事項の違いを正確に把握し、効率的かつ正確なデータ作成と提出体制を構築することが、成功への鍵となります。\n\n## 臨床データ提出とは？：承認審査における重要性\n\n臨床データ提出とは、医薬品や医療機器の承認申請時に、実施された臨床試験で得られたデータを規制当局（FDAやPMDAなど）に電子的に提出することです。このデータは、製品の有効性や安全性を示す根拠となり、承認審査の基盤となります。\n\n### eCTD（electronic Common Technical Document）とは？\n\neCTD（イーシーティーディー）は、「電子化されたコモン・テクニカル・ドキュメント」の略で、ICH（医薬品規制調和国際会議）が策定した、医薬品の承認申請資料を電子的に作成・提出するための国際的な標準フォーマットです。臨床データを含む全ての申請資料は、このeCTDの枠組みに沿って提出されます。eCTDは、申請資料の構造化、検索性、レビュー効率の向上を目的としており、FDA、PMDA、EMA（欧州医薬品庁）などの主要な規制当局で導入が義務付けられています。\n\n### CDISC標準（SDTM, ADaM, Define-XML, CT）の役割\n\n臨床データの提出において中核をなすのが、CDISC（シーディスク：Clinical Data Interchange Standards Consortium）標準です。CDISC標準は、臨床試験データの収集から解析、報告までの一連のプロセスで使用されるデータ構造を標準化し、データの品質向上、効率的なデータ交換、そして規制当局による審査の効率化を目的としています。\n\n*   **SDTM（エスディーティーエム：Study Data Tabulation Model）**：個々の被験者から収集された生データを、標準化されたドメイン（例：DM - Demographics, VS - Vital Signs, AE - Adverse Events）に分類し、タブレーション（表形式）で整理するためのモデルです。承認審査では、SDTM形式での提出が必須とされています。\n*   **ADaM（アダム：Analysis Data Model）**：SDTMデータから、統計解析を行うために派生（derive）させた解析用データセットのモデルです。統計解析プログラムが直接使用するデータ構造を定義し、解析の再現性と透明性を高めます。\n*   **Define-XML（ディファイン・エックスエムエル）**：提出される全てのCDISCデータセット（SDTM, ADaMなど）のメタデータ（データの定義、変数リスト、コードリスト、導出ロジックなど）を記述するXML形式のファイルです。規制当局はDefine-XMLを参照して提出データの構造と内容を理解します。\n*   **CT（シーティー：Controlled Terminology）**：標準化された用語集で、特定の変数に使う値を統一するためにCDISCが提供しています。例えば、人種や性別、投与経路などの項目に、世界共通の用語を使用することで、データの比較可能性を保証します。\n\nこれらの標準を用いることで、異なる試験や異なるスポンサーからのデータであっても、当局は一貫した方法でデータをレビューできるようになります。\n\n## 実務での使い方・実装手順\n\n日本の製薬企業やCROで、FDAやPMDAへの臨床データ提出を行う場合、以下のステップで実務を進めるのが一般的です。\n\n**Step 1: データ収集とSDTM変換**\n\n症例報告書（CRF）や電子データキャプチャ（EDC）システムで収集された臨床生データ（非CDISC形式）を、SDTM標準に準拠したデータセットに変換します。この際、SDTM Implementation Guide (IG) を参照し、適切なドメイン、変数、Controlled Terminologyを使用します。\n\n**Step 2: ADaMデータセットの作成**\n\nSDTMデータセットを基に、統計解析計画書（SAP）に基づいて解析に用いるADaMデータセットを作成します。ADaM IGに準拠し、導出変数のロジックを明確に定義します。\n\n**Step 3: Define-XMLの作成**\n\nSDTM、ADaM、および関連するデータ（例えば、リソースファイル）の全てのメタデータを記述したDefine-XMLを作成します。変数名、ラベル、データ型、コードリスト、導出ロジック、外部ファイルへのリンクなどを正確に記載します。Define-XMLはデータの「辞書」であり、当局がデータを理解する上で不可欠です。\n\n**Step 4: データセットバリデーション**\n\n作成したSDTM、ADaM、Define-XMLファイルがCDISC標準および当局の要件に準拠しているかを確認するため、バリデーションツール（例：Pinnacle 21 Community/Enterprise）を使用してバリデーションを実施します。検出されたエラーや警告は、可能な限り修正・説明します。\n\n**Step 5: eCTDへの組み込みと提出**\n\nバリデーション済みデータセットとDefine-XML、および関連ドキュメント（Study Data Reviewer's Guideなど）をeCTD構造に組み込み、各当局の指定する方法で提出します。\n\n### SASコード例：SDTMからADaMへの基本変換\n\n以下は、SDTMのDemographics (DM) ドメインから、ADaMの基本データ構造 (ADaM ADSL) を作成する際の非常に簡略化されたSASコード例です。実際のADaM作成はより複雑ですが、概念を示すためのものです。\n\n```sas\n/* SDTM.DMデータセットを読み込み */\nlibname sdtm 'C:/data/sdtm'; /* SDTMデータセットが保存されているパス */\nlibname adam 'C:/data/adam'; /* ADaMデータセットを保存するパス */\n\n/* ADaM ADSL (Subject-Level Analysis Dataset) の作成例 */\ndata adam.adsl;\n  set sdtm.dm; /* SDTM DMドメインからデータを取得 */\n\n  /* 必要に応じて、ADaM変数を作成・導出 */\n  USUBJID = USUBJID; /* Unique Subject Identifier */\n  SITEID = SITEID;   /* Study Site Identifier */\n  SUBJID = SUBJID;   /* Subject Identifier for the Study */\n\n  /* 計画治療群の導出 (SDTM TRT01Aを使用) */\n  if TRT01A = 'Placebo' then ARM = 'Placebo';\n  else if TRT01A = 'Drug X Low Dose' then ARM = 'Drug X Low Dose';\n  else if TRT01A = 'Drug X High Dose' then ARM = 'Drug X High Dose';\n  else ARM = 'Other'; /* 未定義の場合 */\n\n  /* 年齢カテゴリの導出 */\n  if AGE >= 18 and AGE <= 64 then AGEGR1 = '18-64';\n  else if AGE >= 65 then AGEGR1 = '>=65';\n  else AGEGR1 = '<18'; /* 小児試験の場合など */\n\n  /* 変数ラベルの付与 (ADaM IGに準拠) */\n  label USUBJID = \n\n## CDISC実務に役立つリソース\n\nこの記事の内容をさらに深めるために、以下のリソースが役立ちます。\n\n- **[Amazon CDISC書籍](https://www.amazon.co.jp?tag=musclelove07-22)** - CDISC・臨床データ標準の参考書\n- **[Udemy SAS講座](https://www.udemy.com)** - 動画で学ぶCDISC実装\n- **[楽天 医薬品開発書籍](https://www.rakuten.co.jp)** - 製薬・臨床開発の参考書\n\n*上記リンクからご利用いただくと、サイト運営の支援になります。*\n",
  "hero_emoji": "📝",
  "hero_gradient": "135deg",
  "meta_description": "FDA/PMDA 承認審査：臨床データ提出の最新要件と実務\n\nCDISC Standards Navigatorへようこそ！ベテランSASプログラマーの私が、承認審査の鍵となる臨床データ提出について、FDAとPMDAの最新要件から実務上の",
  "tags": [
    "自動生成",
    "ブログ",
    "記事",
    "SEO",
    "最新"
  ],
  "slug": "fdapmda",
  "keyword": "承認審査, 臨床データ提出, PMDA, FDA",
  "category": "規制当局対応",
  "generated_at": "2026-04-14T05:23:07.832375",
  "has_affiliate": true,
  "affiliate_count": 3,
  "eyecatch_url": "https://images.unsplash.com/photo-1450101499163-c8848c66ca85?w=1200&h=630&fit=crop&auto=format&q=80",
  "eyecatch_credit": "Photo from [Unsplash](https://unsplash.com/)"
}