{
  "title": "MIDDとオンコロジー用量選択：FDA規制科学の最前線",
  "content": "# MIDDとオンコロジー用量選択：FDA規制科学の最前線\n\n![MIDDとオンコロジー用量選択：FDA規制科学の最前線](https://images.unsplash.com/photo-1450101499163-c8848c66ca85?w=1200&h=630&fit=crop&auto=format&q=80)\n\n*Photo from [Unsplash](https://unsplash.com/)*\n\n\nCDISC Standards Navigatorへようこそ！ベテランSASプログラマーの私が、CDISCデータ標準と規制当局対応の最新トレンドを、日本の実務担当者の皆様に分かりやすくお届けします。\n\n近年、創薬開発において**MIDD（Model-Informed Drug Development、モデルインフォームド創薬）**が注目を集めています。特に**オンコロジー（腫瘍学）**領域では、複雑な疾患特性や治療薬の特性から、**用量選択**の最適化が非常に重要です。FDA（米国食品医薬品局）は、このMIDDを**規制科学**の主要な柱の一つとして位置づけ、その活用を積極的に推進しています。今回は、このMIDDの基礎から、海外の最新動向、そして日本の実務における対応ポイントまで、具体的な事例を交えて深掘りしていきます。\n\n## この記事でわかること\n\n*   **MIDD（モデルインフォームド創薬）**の基本概念とオンコロジー領域におけるその重要性\n*   **FDA（米国食品医薬品局）**がMIDDに対してどのような**規制科学**的アプローチをとっているか\n*   臨床開発における**用量選択**へのMIDDの具体的な実装方法とSAS活用例\n*   海外（FDA、EMA）の最新動向と日本（PMDA）での対応ポイントと違い\n*   MIDDデータ提出時の**CDISC（シーディスク）**標準（SDTM、ADaM、Define-XML、CT）の活用とバリデーションの注意点\n\n## 結論から言うと\n\n**MIDD（モデルインフォームド創薬）**は、特に**オンコロジー（腫瘍学）**領域における**用量選択**の最適化と開発効率化に不可欠なアプローチです。**FDA（米国食品医薬品局）**は**規制科学**の一環としてMIDD活用を積極的に推進しており、日本のPMDAもその重要性を認識しています。**CDISC（シーディスク）**標準に則ったデータ提出と適切なバリデーションが成功の鍵となります。\n\n## MIDD（モデルインフォームド創薬）とは？\n\n**MIDD（Model-Informed Drug Development、モデルインフォームド創薬）**とは、薬物動態（PK）、薬力学（PD）、病態生理学などの定量的なモデルとシミュレーションを積極的に活用し、医薬品開発のあらゆる段階で科学的根拠に基づいた意思決定を支援するアプローチです。これは単にデータ解析手法の一つではなく、開発戦略全体を「モデル」という視点から統合的に捉え、最適化していく考え方と言えます。\n\n具体的には、以下の目的で用いられます。\n\n*   **臨床試験デザインの最適化**: 適切な用量、投与間隔、対象患者集団の選択\n*   **用量選択の最適化**: 安全性、有効性、忍容性のバランスが最も良い用量を決定\n*   **ブリッジングスタディの最適化**: 異なる集団間（例：成人から小児、海外から日本）での外挿性評価\n*   **バイオマーカーの探索と検証**: 薬効予測や安全性評価に有用なバイオマーカーの同定\n*   **規制当局との対話の効率化**: モデルに基づいた強力な科学的根拠の提示\n\n特に**オンコロジー（腫瘍学）**領域では、治療薬の作用機序が複雑で、患者さんの病態や遺伝的背景も多様です。また、抗がん剤は有効性と引き換えに重篤な副作用を伴うことも多く、最適な**用量選択**が患者さんのQOL（生活の質）と治療効果に直結します。MIDDは、限られた臨床データからより多くの情報を引き出し、個別化医療の推進にも貢献できるため、この領域で特にその真価を発揮しています。\n\n## 実務での使い方・実装手順\n\nMIDDを実務で活用する際の主な手順と、**CDISC（シーディスク）**データ標準に則ったデータ準備、そしてSASコード例をご紹介します。\n\n### ステップ1: データ収集とSDTM変換\n\nまず、臨床試験で得られた生データ（PKサンプル濃度、有効性評価、安全性イベント、患者背景など）を収集し、**SDTM（Standard Data Tabulation Model、臨床試験データを標準化するためのCDISC標準）**データセットに変換します。PK/PDモデルの構築には、特に以下のようなドメインが重要になります。\n\n*   **PC (Pharmacokinetics Concentration)**: 血中薬物濃度データ\n*   **PP (Pharmacokinetics Parameters)**: PKパラメータ（AUC, Cmaxなど）\n*   **EX (Exposure)**: 投与情報\n*   **VS (Vital Signs)**: バイタルサイン（安全性評価）\n*   **RS (Response)**: 腫瘍径の変化など、効果判定データ (オンコロジーの場合)\n*   **AE (Adverse Events)**: 有害事象データ (安全性評価)\n*   **DM (Demographics)**: 患者背景情報\n\nこれらのSDTMデータは、後のモデル構築のための基本的な情報源となります。\n\n### ステップ2: 母集団PK/PDモデル構築のためのデータ準備（SAS）\n\nPK/PDモデルを構築するためのデータセットをSASで準備します。ここでは、PKデータと投与情報を結合し、モデル解析ツール（NONMEM、Monolix、Rなど）が読み込める形式に加工する例を示します。\n\n```sas\n/* PK濃度データ (PCドメインを想定) */\ndata pc_raw;\n  input USUBJID $ VISIT $ PCTESTCD $ PCSTRESN PCSTRESU $ PCTPTNUM PCTPTREF $ PCTPTDTC $;\n  datalines;\n  SUBJ001 DAY1 CONC 100 ng/mL 1 BL PCTPTDTC=2023-01-01T08:00\n  SUBJ001 DAY1 CONC 80 ng/mL 2 BL PCTPTDTC=2023-01-01T10:00\n  SUBJ001 DAY1 CONC 50 ng/mL 3 BL PCTPTDTC=2023-01-01T12:00\n  SUBJ001 DAY2 CONC 70 ng/mL 4 AD PCTPTDTC=2023-01-02T08:00\n  SUBJ002 DAY1 CONC 120 ng/mL 1 BL PCTPTDTC=2023-01-01T08:00\n  SUBJ002 DAY1 CONC 90 ng/mL 2 BL PCTPTDTC=2023-01-01T10:00\n  ;\nrun;\n\n/* 投与情報データ (EXドメインを想定) */\ndata ex_raw;\n  input USUBJID $ EXTRT $ EXDOSE EXDOSU $ EXSTDTC $ EXTSTIM $;\n  datalines;\n  SUBJ001 DrugA 100 mg 2023-01-01 08:00\n  SUBJ001 DrugA 100 mg 2023-01-02 08:00\n  SUBJ002 DrugA 120 mg 2023-01-01 08:00\n  ;\nrun;\n\n/* PK/PDモデル解析用データセットの作成例 */\ndata pk_model_data;\n  merge pc_raw(where=(PCTESTCD='CONC'))\n        ex_raw(keep=USUBJID EXSTDTC EXTSTIM EXDOSE EXDOSU rename=(EXSTDTC=DOSE_DATE EXTSTIM=DOSE_TIME));\n  by USUBJID;\n\n  /* 日付と時刻のフォーマット変換 */\n  PC_DT = input(PCTPTDTC, B8601DT.);\n  DOSE_DT = input(DOSE_DATE || 'T' || DOSE_TIME, B8601DT.);\n\n  /* 投与からの経過時間 (AMT) を計算 (時間単位) */\n  if not missing(PC_DT) and not missing(DOSE_DT) then do;\n    AMT = (PC_DT - DOSE_DT) / 3600; /* 秒数を時間に変換 */\n    if AMT < 0 then AMT=0; /* 投与前の測定は0と仮定 */\n  end;\n  else AMT = .;\n\n  /* 必要な変数を整形 */\n  ID = USUBJID;\n  TIME = AMT;\n  DV = PCSTRESN; /* Dependent Variable (濃度) */\n  DOSE = EXDOSE;\n  KEEP ID TIME DV DOSE USUBJID PC_DT DOSE_DT;\nrun;\n\nproc print data=pk_model_data;\n  title \n\n## CDISC実務に役立つリソース\n\nこの記事の内容をさらに深めるために、以下のリソースが役立ちます。\n\n- **[Amazon CDISC書籍](https://www.amazon.co.jp?tag=musclelove07-22)** - CDISC・臨床データ標準の参考書\n- **[Udemy SAS講座](https://www.udemy.com)** - 動画で学ぶCDISC実装\n- **[楽天 医薬品開発書籍](https://www.rakuten.co.jp)** - 製薬・臨床開発の参考書\n\n*上記リンクからご利用いただくと、サイト運営の支援になります。*\n",
  "hero_emoji": "📝",
  "hero_gradient": "135deg",
  "meta_description": "MIDDとオンコロジー用量選択：FDA規制科学の最前線\n\nCDISC Standards Navigatorへようこそ！ベテランSASプログラマーの私が、CDISCデータ標準と規制当局対応の最新トレンドを、日本の実務担当者の皆様に分かりや",
  "tags": [
    "自動生成",
    "ブログ",
    "記事",
    "SEO",
    "最新"
  ],
  "slug": "middfda",
  "keyword": "MIDD, モデルインフォームド, オンコロジー, 用量選択, 規制科学, FDA",
  "category": "規制当局対応",
  "generated_at": "2026-04-05T05:11:40.493647",
  "has_affiliate": true,
  "affiliate_count": 3,
  "eyecatch_url": "https://images.unsplash.com/photo-1450101499163-c8848c66ca85?w=1200&h=630&fit=crop&auto=format&q=80",
  "eyecatch_credit": "Photo from [Unsplash](https://unsplash.com/)"
}