{
  "title": "MIDDと規制科学：癌治療薬の用量選択を最適化するCDISC活用術",
  "content": "# MIDDと規制科学：癌治療薬の用量選択を最適化するCDISC活用術\n\n![MIDDと規制科学：癌治療薬の用量選択を最適化するCDISC活用術](https://images.unsplash.com/photo-1450101499163-c8848c66ca85?w=1200&h=630&fit=crop&auto=format&q=80)\n\n*Photo from [Unsplash](https://unsplash.com/)*\n\n\n## この記事でわかること\n*   MIDD（モデル予測型創薬）が癌治療薬の用量選択にどう貢献するか\n*   FDA/PMDAがMIDDのデータ提出に求めるCDISCデータ標準（SDTM, ADaM）の具体的な活用法\n*   海外（FDA, EMA）の最新規制動向と、日本（PMDA）での対応ポイント\n*   実務で役立つSASコード例と、データバリデーションのヒント\n*   規制科学の視点から見たデータ提出のベストプラクティス\n\n## 結論から言うと\n癌治療薬開発における用量選択は、MIDD（モデル予測型創薬）と規制科学の融合により飛躍的に効率化されます。CDISCデータ標準（SDTM、ADaM）に準拠した高品質なデータ提出は、FDAやPMDAからの承認取得を加速させ、患者さんへの安全で有効な治療薬提供に不可欠です。本記事では、その具体的な実践方法と最新トレンドを詳しく解説します。\n\n## MIDD、癌治療薬、用量選択、規制科学とは？\n新薬開発、特に癌治療薬のような複雑な領域では、最適な用量を見つけることが非常に重要です。このプロセスを効率的かつ科学的に進めるために、近年注目されているのがMIDD（Model-Informed Drug Development: モデル予測型創薬）と規制科学（Regulatory Science）です。\n\n**MIDD（モデル予測型創薬）**とは、薬物動態（PK）や薬力学（PD）、臨床的有効性、安全性などのデータを数理モデルを用いて解析し、薬の挙動や効果を予測することで、開発戦略や臨床試験のデザイン、用量選択などを最適化するアプローチです。これにより、時間とコストのかかる臨床試験の数を減らし、より効率的な開発が可能になります。癌治療薬では、患者間の薬物動態のばらつきが大きいことや、安全性と有効性のバランスが特に重要であるため、MIDDの適用が特に有効とされています。\n\n**癌治療薬における用量選択**は、特に挑戦的な課題です。有効性を最大化しつつ、有害事象を最小限に抑える「最適な用量」を見極める必要があります。従来の用量漸増試験だけでは得られない知見をMIDDが提供し、治療域の特定に貢献します。例えば、PK/PDモデルを用いて、ある特定のバイオマーカー値を示す患者群における最適な曝露量を予測し、それを実現する用量を設定するといった活用が考えられます。\n\n**規制科学（Regulatory Science）**とは、医薬品や医療機器の安全性、有効性、品質を評価するための科学的基盤を構築し、規制上の意思決定を支援する学際的な科学分野です。FDAやPMDAなどの規制当局は、MIDDから得られたデータや解析結果が、科学的に堅牢であり、規制上の意思決定に耐えうるものであるかを評価します。CDISCデータ標準（SDTM, ADaM）は、この規制科学的評価を円滑に進めるための共通言語として機能します。\n\nCDISC（Clinical Data Interchange Standards Consortium）データ標準は、MIDDで用いられる様々な臨床データを構造化し、標準的な形式で提供するための枠組みです。例えば、薬物濃度データはSDTMのPC（Pharmacokinetics Concentrations）ドメインに、薬物動態パラメータはPP（Pharmacokinetics Parameters）ドメインにマッピングされます。また、モデル解析結果や曝露反応解析に用いるデータセットはADaM（Analysis Data Model: 解析用データモデル）で作成され、規制当局による再現性検証や審査を容易にします。\n\n## 実務での使い方・実装手順\n\nMIDDの成果を規制当局に提出する際、CDISCデータ標準に則ったデータ作成は必須です。ここでは、癌治療薬の用量選択に関するMIDDデータをSDTMおよびADaMとして実装する手順とSASコード例をご紹介します。\n\n**ステップ1: SDTMでのソースデータ構造化**\nまず、MIDDの基礎となる生データ（薬物濃度、バイオマーカー、安全性データなど）をSDTM（Study Data Tabulation Model: 臨床試験データ提出モデル）にマッピングします。\n\n*   **薬物濃度データ**: PC（Pharmacokinetics Concentrations）ドメインを使用。\n    *   `PCCAT`: \"PK Sample\"\n    *   `PCSPID`: \"Pre-dose\", \"1h Post-dose\" など\n    *   `PCLLOQ`: 測定下限値\n    *   `PCORRES`: 生の測定値\n    *   `PCSTRESN`: 単位付き標準化値\n    *   `PCTPTNUM`, `PCTPT`: 採血時点\n\n*   **バイオマーカーデータ**: LB（Laboratory Test Results）ドメインを使用。\n    *   `LBCAT`: \"Biomarker\"\n    *   `LBTESTCD`, `LBTEST`: 検査項目\n    *   `LBORRES`, `LBSTRESN`: 測定値\n\n*   **有効性データ（腫瘍縮小率など）**: RS（Response to Treatment）ドメインまたはTU/TR（Tumor Measurements/Response）ドメインを使用。\n\n**ステップ2: ADaMでの解析用データセット作成**\nMIDDで最も重要となる曝露反応解析や用量反応解析のためのデータセットはADaM（Analysis Data Model: 解析用データモデル）で作成します。特に、PK/PD解析や曝露反応解析はADaMの基本構造であるADSL（Subject-Level Analysis Dataset: 被験者レベル解析データセット）とADPC（Pharmacokinetics Analysis Data Model: 薬物動態解析データモデル）や、一般解析用ADAMデータセット（e.g., ADEX - Exposure, ADLB - Lab, ADTTE - Time to Event）を組み合わせて利用します。\n\n**例: 癌治療薬における曝露（AUC）と有効性（PFSイベント）の解析用ADaMデータセット作成**\n\nこの例では、曝露量（例: AUC）と有効性イベント（例: PFSイベント）を組み合わせたADaMデータセットを作成します。\n\n```sas\n/* --- ADSL (被験者レベル解析データセット) の準備 --- */\n/* ADSLは通常、SDTM.DMから作成されます */\ndata adsl;\n    set sdtm.dm;\n    where armcd in ('TRT_A', 'TRT_B', 'PLACEBO'); /* 治療群の限定 */\n    call symputx('adsl_dsid', compress(put(today(),yymmddn8.) || '_ADSL'));\n    label USUBJID='被験者識別子';\nrun;\n\n/* --- PKパラメータ (AUC) の準備 --- */\n/* SDTM.PPからAUCデータを抽出し、ADAM解析に適した形式に変換 */\ndata pp_auc;\n    set sdtm.pp;\n    where ppcat='PHARMACOKINETICS' and pptestcd='AUCLST'; /* AUCに関するパラメータを抽出 */\n    keep usubjid ppstresn;\n    rename ppstresn=AUC_LAST; /* 最終採血時点までのAUC */\nrun;\n\n/* --- PFS (無増悪生存期間) イベントデータの準備 --- */\n/* SDTM.RSやSDTM.TU/TRからPFSイベントデータを導出 */\n/* 仮のデータ作成。実際は複数のドメインを結合・処理してPFSイベントを導出します */\ndata rs_pfs;\n    length CNSR $1;\n    set sdtm.rs; /* 例: SDTM.RSにPFSデータがある場合 */\n    where rstestcd='PFS' and rseval='INVESTIGATOR';\n    if rsstresc='PROGRESSION' then do;\n        PFS_DAYS = rsstdtc - trtsd; /* 治療開始日からの期間 */\n        PFS_EVENT = 1; /* イベント発生 */\n        CNSR = ' ';\n    end;\n    else if rsstresc='CENSORED' then do;\n        PFS_DAYS = rsstdtc - trtsd; /* 最終評価日 */\n        PFS_EVENT = 0; /* 打ち切り */\n        CNSR = 'C';\n    end;\n    keep usubjid PFS_DAYS PFS_EVENT CNSR;\nrun;\n\n/* --- ADaMデータセットの結合 --- */\n/* ADSLをベースに、AUCとPFSイベントデータを結合 */\ndata adpfs_exp;\n    merge adsl (in=a)\n          pp_auc (in=b)\n          rs_pfs (in=c);\n    by usubjid;\n    if a; /* ADSLに存在する被験者のみを対象 */\n\n    /* ADaM必須変数 */\n    ADTM = datetime(); /* 解析開始日時 */\n    ADLBN = 1; /* 解析ラベル番号 */\n    ADTYPE = 'EXPOSURE-PFS'; /* データセットの種類 */\n\n    label\n        AUC_LAST='最終AUC値'\n        PFS_DAYS='PFS期間 (日)'\n        PFS_EVENT='PFSイベント (1=イベント, 0=打ち切り)'\n        CNSR='打ち切りフラグ';\nrun;\n\nproc contents data=adpfs_exp; run;\nproc print data=adpfs_exp (obs=10); run;\n```\n\nこの`adpfs_exp`データセットは、各被験者の曝露量（AUC_LAST）とPFSイベント情報（PFS_DAYS, PFS_EVENT, CNSR）を含んでおり、曝露反応解析（Exposure-Response Analysis）のインプットとして利用できます。CDISC ADaM IG（Analysis Data Model Implementation Guide）に従い、変数名、ラベル、値の定義を適切に行うことが重要です。\n\n## 海外の最新動向\n\nFDA（米国食品医薬品局）およびEMA（欧州医薬品庁）は、MIDDの活用を積極的に推奨しており、特に癌治療薬の分野では、より効率的で患者中心の薬物開発を促進するための重要なツールと位置づけています。\n\n**FDAの動向:**\nFDAは、「Model-Informed Drug Development (MIDD) Paired Meeting Program」などを通じて、製薬企業が開発早期からMIDDアプローチを規制当局と議論できる機会を提供しています。特に癌治療薬では、患者集団の多様性や病態の複雑さから、用量選択や用法・用量の最適化においてMIDDの重要性が増しています。\nFDAは、以下のような点でMIDDの活用を期待しています。\n\n*   **用量選択の効率化**: 臨床試験フェーズI/IIでのPK/PDデータを用いた曝露反応解析により、最適な用量範囲の特定や、小児、腎機能・肝機能障害患者など特殊集団での用量調整に貢献。\n*   **ブリッジングスタディの削減**: 民族差、または異なる剤形間での同等性評価において、MIDDが追加の臨床試験の必要性を減らす可能性。\n*   **バイオマーカーの活用**: 特定のバイオマーカーレベルと薬効・安全性の関連をモデルで評価し、治療対象患者の層別化に役立てる。\n\n**出典: [FDA Guidance for Industry: Model-Informed Drug Development (MIDD) Paired Meeting Program](https://www.fda.gov/drugs/regulatory-science-research/model-informed-drug-development-midd-paired-meeting-program)**\n\nFDAは、eCTD（electronic Common Technical Document）で提出される電子データがCDISC標準に準拠していることを求めており、MIDDの解析基盤となるデータも例外ではありません。特に、`FDA Study Data Technical Conformance Guide`では、CDISC標準への厳格な準拠が求められています。PK/PD関連のデータはSDTMのPC/PPドメイン、そしてそれらを基にした解析用データセットはADaMとして提出する必要があります。これにより、FDAの審査官は提出されたデータを容易に検証し、モデル解析結果の妥当性を評価できます。\n\n**EMAの動向:**\nEMAもFDAと同様にMIDDの重要性を認識しており、特に`Pharmacokinetics and Pharmacodynamics (PK/PD) modelling and simulation`のガイドラインで、その利用を推奨しています。\n**出典: [EMA guidance: ICH E4 – Dose response information to support drug registration](https://www.ema.europa.eu/en/documents/scientific-guideline/ich-e4-dose-response-information-support-drug-registration-scientific-guideline_en.pdf)** (これはICH E4に関するガイドラインですが、MIDDのアプローチを含んでいます)\n\nEMAは、申請資料（Module 5）において、MIDDを用いた解析結果とその裏付けとなるデータ、さらにはモデルの妥当性に関する詳細な情報を求めています。CDISCデータ標準は、これらの情報を構造化し、透明性をもって提供するための国際的な枠組みとして機能します。\n\n**CDISC標準の更新情報:**\nCDISCは、MIDDのニーズに対応するため、PK/PD関連の標準を継続的に更新しています。例えば、SDTMのPC/PPドメインやADaMの基本構造に加え、Nonclinical PK（NCPK）などの非臨床データ標準も存在し、創薬の初期段階から臨床まで一貫したデータ管理をサポートしています。最新のIG（Implementation Guide）やTherapeutic Area User Guide（TAUG）を確認し、最新の要件に準拠することが重要です。\n\n## 日本での対応ポイント\n\nPMDA（医薬品医療機器総合機構）も、FDAやEMAと同様にMIDDの重要性を認識し、その活用を推奨しています。特に、近年PMDAは審査の効率化と科学的根拠に基づく判断の強化を進めており、MIDDは規制科学の重要な柱の一つとなっています。\n\n**PMDAの電子データ提出要件:**\nPMDAは、2016年7月以降、新薬承認申請において、電子データ（SDTM, ADaM, Define-XML）の提出を求めています。`PMDA 電子データ提出要件`および`PMDA Study Data Technical Conformance Guide`（日本版STCG）に準拠することが必須です。\n\n*   **SDTM/ADaMの要件**: FDAと同様に、PMDAもCDISC標準への準拠を求めています。PK/PDデータや曝露反応解析に用いるデータも、適切にSDTMのPC/PPドメインおよびADaMの構造に従って作成する必要があります。\n*   **Define-XML**: 提出するSDTMおよびADaMデータセットの変数、ラベル、コードリスト、導出ロジックなどを記述するDefine-XMLは、PMDA審査官がデータ構造を理解するための重要なツールです。MIDDで用いる複雑な導出変数については、Define-XMLに詳細な導出ロジック（`AnalysisResultsMetadata`や`Method`要素）を記載することが特に求められます。\n*   **eCTDへの組込み**: CDISCデータは、eCTD（電子共通技術文書）のModule 4（非臨床試験の概要）およびModule 5（臨床試験の概要）に組み込まれます。特に、PK/PD報告書や曝露反応解析報告書は、Module 5.3.1（臨床試験報告書）に位置づけられ、対応するSDTM/ADaMデータが参照されます。\n\n**FDAとPMDAの比較と対応アドバイス:**\n基本的なCDISC標準への準拠はFDAとPMDAで共通していますが、PMDAは、日本独自の医療状況や患者背景を考慮した解析を求める場合があります。\n\n| 項目             | FDAの要求                                      | PMDAの要求                                            | 日本の実務へのアドバイス                                     |\n| :--------------- | :--------------------------------------------- | :---------------------------------------------------- | :----------------------------------------------------------- |\n| **CDISC標準**    | CDISC IG, TAUG, FDA STCGに厳格に準拠           | CDISC IG, TAUG, PMDA STCGに準拠。日本特有のガイダンスも参照 | 両者のSTCGを確認し、いずれにも対応できる形式でデータを作成。特にDefine-XMLで詳細な導出ロジックを記載。 |\n| **MIDDの活用**   | 開発早期からの活用を推奨、用量選択の合理化を重視 | 同様に活用を推奨、日本人集団での妥当性を重視           | 日本人集団におけるPK/PD特性や曝露反応に関する解析を追加で実施・提出することも検討。 |\n| **審査の視点**   | 世界的な視点、画期性やベネフィット・リスクバランス | 日本の医療環境におけるニーズ、安全性重視             | 日本人でのデータが不足している場合、既存のMIDD結果を日本人集団に外挿する際の科学的根拠を明確に説明する。 |\n| **eCTD構成**     | Module 4/5にCDISCデータを添付                | 同様にModule 4/5にCDISCデータを添付。特にDefine-XMLの重要性強調 | Define-XMLのQualityを確保し、PMDAが求める詳細度で記述する。 |\n\n**日本の実務に落とし込むアドバイス:**\n*   **早期からの対話**: MIDDを適用する癌治療薬の開発においては、開発早期からPMDAと対話（治験相談）を行い、MIDDアプローチの妥当性やデータ提出の計画について合意形成を図ることが重要です。\n*   **日本人データへの配慮**: 海外で得られたMIDDの結果を日本人患者に外挿する際には、日本人のPK/PD特性や疾患特性に関する情報（既存文献やブリッジングスタディの結果など）を補足し、その妥当性を科学的に説明できる準備が必要です。\n*   **Define-XMLの品質**: MIDDの解析データは複雑になりがちです。解析過程の透明性を確保するため、Define-XMLにSASプログラムのステップバイステップな説明や、導出変数（例えば、AUCやPFSイベント）の定義、計算式、使用した元データについて詳細に記述することが、PMDA審査官の理解を深める上で極めて有効です。\n\n## よくあるエラーと対処法\n\nCDISCデータを作成する際、特にMIDD関連のデータでは、様々なバリデーションエラーが発生する可能性があります。ここでは、Pinnacle 21などのバリデーションツールでよく見られるエラーとその対処法をご紹介します。\n\n**1. PKデータ（PC, PP）における単位不一致エラー**\n*   **エラー例**: `PCORRESU` (原単位) と `PCSTRESU` (標準単位) が一致しない、または想定される単位と異なる。例えば、血漿中薬物濃度がng/mLで測定されているのに、標準単位がµg/mLとされている。\n*   **対処法**: \n    *   `PCORRES` と `PCORRESU` は、測定されたそのままの単位と値を正確に記録します。\n    *   `PCSTRESN` と `PCSTRESU` は、CDISC標準やプロトコルで定義された標準単位と、それに変換された値を使用します。変換係数やロジックはDefine-XMLに明記します。\n    *   `PCLLOQ`, `PCLOOR` などの単位も、一貫性を持たせる必要があります。\n\n**2. PP（PKパラメータ）ドメインのパラメータ定義の不整合**\n*   **エラー例**: `PPTESTCD` や `PPTEST` で定義されたPKパラメータが、製薬業界で一般的に認知されているものと異なる、またはDefine-XMLでの導出ロジックが曖昧。\n*   **対処法**: \n    *   `PPTESTCD` は、CDISCのControlled Terminology（CT）を優先して使用します。もしCTにない場合は、明確で簡潔なコードを作成し、Define-XMLでその意味と導出方法を詳細に記述します。\n    *   `PPTEST` は、`PPTESTCD`の長文記述ですが、同じ意味合いを持つようにします。\n    *   Define-XMLの`Method`セクションで、各PKパラメータ（例: AUC、Cmax、Tmax）の計算方法、使用したPKソフトウェア（例: NONMEM, Phoenix WinNonlin）、バージョン、モデルの仮定などを詳細に記載することが必須です。\n\n**3. ADaMデータセットのキー変数欠損または不整合**\n*   **エラー例**: ADaMデータセットにおいて、`USUBJID` (被験者識別子) や `STUDYID` (試験識別子) といったキー変数が欠損している、またはSDTMとADaMで異なる値が使用されている。\n*   **対処法**: \n    *   ADaMデータセットはSDTMデータを基に作成されるため、`USUBJID`や`STUDYID`はSDTMと完全に一致している必要があります。\n    *   各ADaMデータセットには、ADaM IGで定められた必須変数（`STUDYID`, `USUBJID`, `ADSL_FLAG`など）が適切に存在し、定義されているか確認します。\n    *   `ADSL_FLAG` (被験者レベル解析データセットに含まれる被験者を示すフラグ) は、`ADSL`に存在する被験者に対して1を設定し、それ以外の被験者には0（または欠損）とします。\n\n**4. Define-XMLの不備**\n*   **エラー例**: \n    *   Define-XMLに、SDTMやADaMデータセットの全ての変数やコードリストが定義されていない。\n    *   導出変数（Derived Variables）の導出ロジックが不明確、またはSASコードで示されていない。\n    *   外部ファイル（例: PK解析レポート）への参照が正しく設定されていない。\n*   **対処法**: \n    *   Define-XMLの作成には、Pinnacle 21 Enterpriseなどのツールを活用し、自動生成されるDefine-XMLをベースに手作業で詳細な記述を追加します。\n    *   導出ロジックは、擬似コードだけでなく、実際のSASコードスニペットを`Method`要素内に記載することで、審査官が再現性を検証しやすくなります。\n    *   外部ファイルの参照は、eCTDのファイルパスと一致させる必要があります。\n\n**バリデーションTips:**\n*   **早期バリデーション**: データ作成の初期段階からPinnacle 21などのバリデーションツールで定期的にチェックを行い、問題を早期に発見し修正します。\n*   **社内標準の徹底**: 組織内でSDTM/ADaM作成に関する標準手順書（SOP）を整備し、変数名、ラベル、値、導出ロジックの一貫性を保ちます。\n*   **Define-XMLのレビュー**: Define-XMLは、データプログラマーだけでなく、統計家や臨床開発担当者も交えてレビューし、記載内容がデータの意味や解析ロジックを正確に反映しているか確認します。\n*   **CDISC CTの活用**: Controlled Terminology（統制語彙集）を常に最新の状態に保ち、データ入力やマッピングの際に正確に適用します。\n\n## よくある質問（FAQ）\n\n**Q1: MIDDの導入は、癌治療薬の開発期間をどのくらい短縮できますか？**\n**A1:** MIDD（モデル予測型創薬）は、臨床試験のデザイン最適化や用量選択の効率化を通じて、開発期間を大幅に短縮する可能性を秘めています。具体的な短縮期間は開発品目や疾患によって異なりますが、例えば、不必要な臨床試験フェーズを省略したり、試験規模を適正化したりすることで、数ヶ月から1年以上の期間短縮に貢献した事例も報告されています。特に癌治療薬では、患者さんへの治療薬をより早く届けるという点で大きな意義があります。\n\n**Q2: MIDDで得られたデータは、PMDAとFDAで提出方法に違いがありますか？**\n**A2:** 基本的なCDISCデータ標準（SDTM, ADaM）への準拠は、PMDAとFDAで共通しています。しかし、両当局はそれぞれ独自のStudy Data Technical Conformance Guide（STCG）を発行しており、一部の細かな要件やガイダンス解釈に違いがある場合があります。例えば、Define-XMLでの導出ロジックの詳細度や、特定の外部ファイルへの参照方法などが異なることがあります。提出前には、それぞれの最新のSTCGを確認し、両方の要件を満たすように準備することをお勧めします。\n\n**Q3: SASプログラマーとして、MIDDのデータ提出に貢献するために何を学べばよいですか？**\n**A3:** SASプログラマーとしてMIDDのデータ提出に貢献するためには、以下のスキルセットが役立ちます。\n1.  **CDISC SDTM/ADaMの深い理解**: 特にPK/PD関連のドメイン（PC, PP）やADaMの基本構造（ADSL, ADPCなど）に関する知識。\n2.  **PK/PD解析の基礎知識**: 薬物動態学や薬力学の基本的な概念、および曝露反応解析の考え方。\n3.  **SASによるデータ処理・変換スキル**: 生データからSDTM、そしてADaMへの変換ロジックを効率的に実装する能力。\n4.  **Define-XMLの作成・レビュー能力**: バリデーションツール（Pinnacle 21など）の利用経験と、Define-XMLに解析ロジックを正確に記述するスキル。\n5.  **規制当局のガイダンス理解**: FDA/PMDAのSTCGや、MIDD関連のガイダンスを定期的に確認し、最新の要件に対応する知識。\nこれらのスキルを習得することで、MIDDを活用した効率的な新薬開発に大きく貢献できます。\n\n## CDISC実務に役立つリソース\n\nこの記事の内容をさらに深めるために、以下のリソースが役立ちます。\n\n- **[Amazon CDISC書籍](https://www.amazon.co.jp?tag=musclelove07-22)** - CDISC・臨床データ標準の参考書\n- **[Udemy SAS講座](https://www.udemy.com)** - 動画で学ぶCDISC実装\n- **[楽天 医薬品開発書籍](https://www.rakuten.co.jp)** - 製薬・臨床開発の参考書\n\n*上記リンクからご利用いただくと、サイト運営の支援になります。*\n\n\n## まとめ\n\n本記事では、MIDD（モデル予測型創薬）と規制科学が癌治療薬の用量選択にどのように貢献し、その成果をFDAやPMDAに提出する際にCDISCデータ標準が果たす重要な役割について解説しました。\n\nMIDDは、臨床試験の効率化と科学的根拠に基づいた意思決定を可能にし、癌治療薬のように複雑な開発領域において、最適な用量を迅速に特定するための強力なツールです。そして、そのMIDDから得られた豊富な知見を規制当局に透明性高く、かつ正確に伝えるためには、CDISC SDTMおよびADaMに準拠した高品質な電子データ提出が不可欠です。\n\nFDAやPMDAは、MIDDの活用を積極的に推奨しており、CDISCデータ標準への厳格な準拠を求めています。SASプログラマーとしては、SDTMやADaMの深い理解、PK/PDの基礎知識、そしてDefine-XMLでの詳細なロジック記述を通じて、この国際的なデータ提出要件に対応していくことが求められます。\n\nCDISC Standards Navigatorでは、今後も最新の規制動向を分かりやすく解説し、日本の製薬企業・CROの実務担当者の皆様が、グローバルな開発環境で成功するためのサポートを続けてまいります。ぜひ、本記事を皆様の癌治療薬開発における用量選択の最適化、そして規制当局へのスムーズなデータ提出の一助としてご活用ください。",
  "meta_description": "MIDD（モデル予測型開発）と規制科学を駆使し、癌治療薬の用量選択を最適化する方法を解説。FDA/PMDA申請におけるCDISCデータ標準の活用法、最新トレンド、SASコード例もご紹介します。",
  "tags": [
    "MIDD",
    "癌治療薬",
    "CDISC",
    "規制科学",
    "FDA/PMDA"
  ],
  "slug": "midd-cancer-dose-selection-regulatory-science-cdisc",
  "faq": [
    {
      "question": "MIDDの導入は、癌治療薬の開発期間をどのくらい短縮できますか？",
      "answer": "MIDD（モデル予測型創薬）は、臨床試験のデザイン最適化や用量選択の効率化を通じて、開発期間を大幅に短縮する可能性を秘めています。具体的な短縮期間は開発品目や疾患によって異なりますが、例えば、不必要な臨床試験フェーズを省略したり、試験規模を適正化したりすることで、数ヶ月から1年以上の期間短縮に貢献した事例も報告されています。特に癌治療薬では、患者さんへの治療薬をより早く届けるという点で大きな意義があります。"
    },
    {
      "question": "MIDDで得られたデータは、PMDAとFDAで提出方法に違いがありますか？",
      "answer": "基本的なCDISCデータ標準（SDTM, ADaM）への準拠は、PMDAとFDAで共通しています。しかし、両当局はそれぞれ独自のStudy Data Technical Conformance Guide（STCG）を発行しており、一部の細かな要件やガイダンス解釈に違いがある場合があります。例えば、Define-XMLでの導出ロジックの詳細度や、特定の外部ファイルへの参照方法などが異なることがあります。提出前には、それぞれの最新のSTCGを確認し、両方の要件を満たすように準備することをお勧めします。"
    },
    {
      "question": "SASプログラマーとして、MIDDのデータ提出に貢献するために何を学べばよいですか？",
      "answer": "SASプログラマーとしてMIDDのデータ提出に貢献するためには、以下のスキルセットが役立ちます。\n1.  CDISC SDTM/ADaMの深い理解: 特にPK/PD関連のドメイン（PC, PP）やADaMの基本構造（ADSL, ADPCなど）に関する知識。\n2.  PK/PD解析の基礎知識: 薬物動態学や薬力学の基本的な概念、および曝露反応解析の考え方。\n3.  SASによるデータ処理・変換スキル: 生データからSDTM、そしてADaMへの変換ロジックを効率的に実装する能力。\n4.  Define-XMLの作成・レビュー能力: バリデーションツール（Pinnacle 21など）の利用経験と、Define-XMLに解析ロジックを正確に記述するスキル。\n5.  規制当局のガイダンス理解: FDA/PMDAのSTCGや、MIDD関連のガイダンスを定期的に確認し、最新の要件に対応する知識。\nこれらのスキルを習得することで、MIDDを活用した効率的な新薬開発に大きく貢献できます。"
    }
  ],
  "hero_emoji": "📝",
  "hero_gradient": "135deg",
  "keyword": "MIDD, 癌治療薬, 用量選択, 規制科学",
  "category": "規制当局対応",
  "generated_at": "2026-04-17T05:28:27.980000",
  "has_affiliate": true,
  "affiliate_count": 3,
  "eyecatch_url": "https://images.unsplash.com/photo-1450101499163-c8848c66ca85?w=1200&h=630&fit=crop&auto=format&q=80",
  "eyecatch_credit": "Photo from [Unsplash](https://unsplash.com/)"
}